%time,field.header.seq,field.header.stamp,field.header.frame_id,field.orientation.x,field.orientation.y,field.orientation.z,field.orientation.w,field.orientation_covariance0,field.orientation_covariance1,field.orientation_covariance2,field.orientation_covariance3,field.orientation_covariance4,field.orientation_covariance5,field.orientation_covariance6,field.orientation_covariance7,field.orientation_covariance8,field.angular_velocity.x,field.angular_velocity.y,field.angular_velocity.z,field.angular_velocity_covariance0,field.angular_velocity_covariance1,field.angular_velocity_covariance2,field.angular_velocity_covariance3,field.angular_velocity_covariance4,field.angular_velocity_covariance5,field.angular_velocity_covariance6,field.angular_velocity_covariance7,field.angular_velocity_covariance8,field.linear_acceleration.x,field.linear_acceleration.y,field.linear_acceleration.z,field.linear_acceleration_covariance0,field.linear_acceleration_covariance1,field.linear_acceleration_covariance2,field.linear_acceleration_covariance3,field.linear_acceleration_covariance4,field.linear_acceleration_covariance5,field.linear_acceleration_covariance6,field.linear_acceleration_covariance7,field.linear_acceleration_covariance8
1492398273778223970,1,1492398273708036899,,-176.168333412,-1.2929550648,-1.40288153265,0.0,-1.0,0.0,0.0,0.0,0.0,0.0,0.0,0.0,0.0,-0.0341928468,0.0114484978125,-0.029613447675,-1.0,0.0,0.0,0.0,0.0,0.0,0.0,0.0,0.0,-2.74586227459,-0.927174274536,-40.9877877277,-1.0,0.0,0.0,0.0,0.0,0.0,0.0,0.0,0.0
1492398273796826068,2,1492398273728029966,,-176.093620457,1.08156673058,-1.40288153265,0.0,-1.0,0.0,0.0,0.0,0.0,0.0,0.0,0.0,0.0,-0.0346507867125,0.0134329041,-0.02991874095,-1.0,0.0,0.0,0.0,0.0,0.0,0.0,0.0,0.0,-2.79935309812,0.775616941198,-40.9877877277,-1.0,0.0,0.0,0.0,0.0,0.0,0.0,0.0,0.0
1492398273817374104,3,1492398273747925996,,-176.093620457,1.08156673058,-1.38035407344,0.0,-1.0,0.0,0.0,0.0,0.0,0.0,0.0,0.0,0.0,-0.035108726625,0.0132802574625,-0.0285449212125,-1.0,0.0,0.0,0.0,0.0,0.0,0.0,0.0,0.0,-2.79935309812,0.775616941198,-40.9877877277,-1.0,0.0,0.0,0.0,0.0,0.0,0.0,0.0,0.0
1492398273837258449,4,1492398273767924070,,-176.093620457,1.08156673058,-1.38035407344,0.0,-1.0,0.0,0.0,0.0,0.0,0.0,0.0,0.0,0.0,-0.034498140075,0.01037997135,-0.029002861125,-1.0,0.0,0.0,0.0,0.0,0.0,0.0,0.0,0.0,-2.79935309812,0.775616941198,-40.9877877277,-1.0,0.0,0.0,0.0,0.0,0.0,0.0,0.0,0.0
1492398273857150620,5,1492398273787919998,,-176.126614335,-3.87338566493,-1.38035407344,0.0,-1.0,0.0,0.0,0.0,0.0,0.0,0.0,0.0,0.0,-0.033887553525,0.0111432045375,-0.0303766808625,-1.0,0.0,0.0,0.0,0.0,0.0,0.0,0.0,0.0,-2.78152282361,-2.78152282361,-40.9877877277,-1.0,0.0,0.0,0.0,0.0,0.0,0.0,0.0,0.0
1492398273877138365,6,1492398273807921886,,-176.126614335,-3.87338566493,-1.38035407344,0.0,-1.0,0.0,0.0,0.0,0.0,0.0,0.0,0.0,0.0,-0.035108726625,0.010074678075,-0.0303766808625,-1.0,0.0,0.0,0.0,0.0,0.0,0.0,0.0,0.0,-2.78152282361,-2.78152282361,-40.9877877277,-1.0,0.0,0.0,0.0,0.0,0.0,0.0,0.0,0.0
1492398273899220222,7,1492398273828097105,,-176.126614335,-3.87338566493,-1.38035407344,0.0,-1.0,0.0,0.0,0.0,0.0,0.0,0.0,0.0,0.0,-0.0337349068875,0.0123643776375,-0.0273237481125,-1.0,0.0,0.0,0.0,0.0,0.0,0.0,0.0,0.0,-2.78152282361,-2.78152282361,-40.9877877277,-1.0,0.0,0.0,0.0,0.0,0.0,0.0,0.0,0.0
1492398273917233073,8,1492398273847986936,,-176.126614335,-3.87338566493,-1.37483478057,0.0,-1.0,0.0,0.0,0.0,0.0,0.0,0.0,0.0,0.0,-0.03358226025,0.0129749641875,-0.0306819741375,-1.0,0.0,0.0,0.0,0.0,0.0,0.0,0.0,0.0,-2.78152282361,-2.78152282361,-40.9877877277,-1.0,0.0,0.0,0.0,0.0,0.0,0.0,0.0,0.0
1492398273945307769,9,1492398273867980957,,-176.126614335,-3.87338566493,-1.37483478057,0.0,-1.0,0.0,0.0,0.0,0.0,0.0,0.0,0.0,0.0,-0.036635193,0.0141961372875,-0.0315978539625,-1.0,0.0,0.0,0.0,0.0,0.0,0.0,0.0,0.0,-2.78152282361,-2.78152282361,-40.9877877277,-1.0,0.0,0.0,0.0,0.0,0.0,0.0,0.0,0.0
1492398273957421322,10,1492398273888021945,,-176.126614335,-3.87338566493,-1.37483478057,0.0,-1.0,0.0,0.0,0.0,0.0,0.0,0.0,0.0,0.0,-0.033887553525,0.01404349065,-0.0303766808625,-1.0,0.0,0.0,0.0,0.0,0.0,0.0,0.0,0.0,-2.78152282361,-2.78152282361,-40.9877877277,-1.0,0.0,0.0,0.0,0.0,0.0,0.0,0.0,0.0
1492398273977244850,11,1492398273907968044,,-176.126614335,-3.87338566493,-1.37483478057,0.0,-1.0,0.0,0.0,0.0,0.0,0.0,0.0,0.0,0.0,-0.0343454934375,0.012517024275,-0.02991874095,-1.0,0.0,0.0,0.0,0.0,0.0,0.0,0.0,0.0,-2.78152282361,-2.78152282361,-40.9877877277,-1.0,0.0,0.0,0.0,0.0,0.0,0.0,0.0,0.0
1492398273997153218,12,1492398273927880048,,-176.211231512,3.39076627958,-1.37483478057,0.0,-1.0,0.0,0.0,0.0,0.0,0.0,0.0,0.0,0.0,-0.0358719598125,0.01160114445,-0.029002861125,-1.0,0.0,0.0,0.0,0.0,0.0,0.0,0.0,0.0,-2.71911686282,2.43383247066,-40.9877877277,-1.0,0.0,0.0,0.0,0.0,0.0,0.0,0.0,0.0
1492398274018446403,13,1492398273948249101,,-176.211231512,3.39076627958,-1.61679031067,0.0,-1.0,0.0,0.0,0.0,0.0,0.0,0.0,0.0,0.0,-0.0317505006,0.0099220314375,-0.0305293275,-1.0,0.0,0.0,0.0,0.0,0.0,0.0,0.0,0.0,-2.71911686282,2.43383247066,-40.9877877277,-1.0,0.0,0.0,0.0,0.0,0.0,0.0,0.0,0.0
1492398274037181106,14,1492398273967931985,,-176.211231512,3.39076627958,-1.61679031067,0.0,-1.0,0.0,0.0,0.0,0.0,0.0,0.0,0.0,0.0,-0.03236108715,0.012517024275,-0.0319031472375,-1.0,0.0,0.0,0.0,0.0,0.0,0.0,0.0,0.0,-2.71911686282,2.43383247066,-40.9877877277,-1.0,0.0,0.0,0.0,0.0,0.0,0.0,0.0,0.0
1492398274057266292,15,1492398273987946033,,-176.081576827,1.33010209035,-1.61679031067,0.0,-1.0,0.0,0.0,0.0,0.0,0.0,0.0,0.0,0.0,-0.0341928468,0.01160114445,-0.0329716737,-1.0,0.0,0.0,0.0,0.0,0.0,0.0,0.0,0.0,-2.80826823537,0.953919686301,-40.9877877277,-1.0,0.0,0.0,0.0,0.0,0.0,0.0,0.0,0.0
1492398274077511834,16,1492398274008238077,,-176.081576827,1.33010209035,-1.61679031067,0.0,-1.0,0.0,0.0,0.0,0.0,0.0,0.0,0.0,0.0,-0.03602460645,0.0102273247125,-0.0279343346625,-1.0,0.0,0.0,0.0,0.0,0.0,0.0,0.0,0.0,-2.80826823537,0.953919686301,-40.9877877277,-1.0,0.0,0.0,0.0,0.0,0.0,0.0,0.0,0.0
1492398274097019783,17,1492398274027889966,,-176.081576827,1.33010209035,-1.61679031067,0.0,-1.0,0.0,0.0,0.0,0.0,0.0,0.0,0.0,0.0,-0.035108726625,0.0111432045375,-0.0309872674125,-1.0,0.0,0.0,0.0,0.0,0.0,0.0,0.0,0.0,-2.80826823537,0.953919686301,-40.9877877277,-1.0,0.0,0.0,0.0,0.0,0.0,0.0,0.0,0.0
1492398274117245184,18,1492398274048022985,,-176.133393933,-2.34867693204,-1.61679031067,0.0,-1.0,0.0,0.0,0.0,0.0,0.0,0.0,0.0,0.0,-0.036329899725,0.0126696709125,-0.0319031472375,-1.0,0.0,0.0,0.0,0.0,0.0,0.0,0.0,0.0,-2.77260768635,-1.68496094122,-40.9877877277,-1.0,0.0,0.0,0.0,0.0,0.0,0.0,0.0,0.0
1492398274137168457,19,1492398274067915916,,-176.133393933,-2.34867693204,-1.39152665255,0.0,-1.0,0.0,0.0,0.0,0.0,0.0,0.0,0.0,0.0,-0.033276966975,0.012211731,-0.0322084405125,-1.0,0.0,0.0,0.0,0.0,0.0,0.0,0.0,0.0,-2.77260768635,-1.68496094122,-40.9877877277,-1.0,0.0,0.0,0.0,0.0,0.0,0.0,0.0,0.0
1492398274158750699,20,1492398274088721036,,-176.133393933,-2.34867693204,-1.39152665255,0.0,-1.0,0.0,0.0,0.0,0.0,0.0,0.0,0.0,0.0,-0.0322084405125,0.010685264625,-0.02991874095,-1.0,0.0,0.0,0.0,0.0,0.0,0.0,0.0,0.0,-2.77260768635,-1.68496094122,-40.9877877277,-1.0,0.0,0.0,0.0,0.0,0.0,0.0,0.0,0.0
1492398274178894988,21,1492398274108915090,,-176.133393933,-2.34867693204,-1.39152665255,0.0,-1.0,0.0,0.0,0.0,0.0,0.0,0.0,0.0,0.0,-0.03236108715,0.0117537910875,-0.030834620775,-1.0,0.0,0.0,0.0,0.0,0.0,0.0,0.0,0.0,-2.77260768635,-1.68496094122,-40.9877877277,-1.0,0.0,0.0,0.0,0.0,0.0,0.0,0.0,0.0
1492398274198674004,22,1492398274128823995,,-176.133393933,-2.34867693204,-1.39152665255,0.0,-1.0,0.0,0.0,0.0,0.0,0.0,0.0,0.0,0.0,-0.0337349068875,0.010074678075,-0.030834620775,-1.0,0.0,0.0,0.0,0.0,0.0,0.0,0.0,0.0,-2.77260768635,-1.68496094122,-40.9877877277,-1.0,0.0,0.0,0.0,0.0,0.0,0.0,0.0,0.0
1492398274218142283,23,1492398274148459911,,-176.133393933,-2.34867693204,-1.39152665255,0.0,-1.0,0.0,0.0,0.0,0.0,0.0,0.0,0.0,0.0,-0.03480343335,0.011295851175,-0.0293081544,-1.0,0.0,0.0,0.0,0.0,0.0,0.0,0.0,0.0,-2.77260768635,-1.68496094122,-40.9877877277,-1.0,0.0,0.0,0.0,0.0,0.0,0.0,0.0,0.0
1492398274239513312,24,1492398274168565988,,-176.133393933,-2.34867693204,-1.60386277115,0.0,-1.0,0.0,0.0,0.0,0.0,0.0,0.0,0.0,0.0,-0.033276966975,0.012517024275,-0.0312925606875,-1.0,0.0,0.0,0.0,0.0,0.0,0.0,0.0,0.0,-2.77260768635,-1.68496094122,-40.9877877277,-1.0,0.0,0.0,0.0,0.0,0.0,0.0,0.0,0.0
1492398274258267979,25,1492398274188319921,,-176.167703542,0.770884482657,-1.60386277115,0.0,-1.0,0.0,0.0,0.0,0.0,0.0,0.0,0.0,0.0,-0.0341928468,0.012517024275,-0.0329716737,-1.0,0.0,0.0,0.0,0.0,0.0,0.0,0.0,0.0,-2.74586227459,0.552738509819,-40.9877877277,-1.0,0.0,0.0,0.0,0.0,0.0,0.0,0.0,0.0
1492398274277471395,26,1492398274208156108,,-176.167703542,0.770884482657,-1.60386277115,0.0,-1.0,0.0,0.0,0.0,0.0,0.0,0.0,0.0,0.0,-0.0358719598125,0.010074678075,-0.0297660943125,-1.0,0.0,0.0,0.0,0.0,0.0,0.0,0.0,0.0,-2.74586227459,0.552738509819,-40.9877877277,-1.0,0.0,0.0,0.0,0.0,0.0,0.0,0.0,0.0
1492398274297309875,27,1492398274228010892,,-176.167703542,0.770884482657,-1.60386277115,0.0,-1.0,0.0,0.0,0.0,0.0,0.0,0.0,0.0,0.0,-0.036329899725,0.0105326179875,-0.02991874095,-1.0,0.0,0.0,0.0,0.0,0.0,0.0,0.0,0.0,-2.74586227459,0.552738509819,-40.9877877277,-1.0,0.0,0.0,0.0,0.0,0.0,0.0,0.0,0.0
1492398274317329400,28,1492398274247901916,,-176.174935368,-3.60121786428,-1.60386277115,0.0,-1.0,0.0,0.0,0.0,0.0,0.0,0.0,0.0,0.0,-0.03358226025,0.0102273247125,-0.0317505006,-1.0,0.0,0.0,0.0,0.0,0.0,0.0,0.0,0.0,-2.74586227459,-2.58538980399,-40.9877877277,-1.0,0.0,0.0,0.0,0.0,0.0,0.0,0.0,0.0
1492398274337266895,29,1492398274267936944,,-176.174935368,-3.60121786428,-1.61679031067,0.0,-1.0,0.0,0.0,0.0,0.0,0.0,0.0,0.0,0.0,-0.035108726625,0.0105326179875,-0.0285449212125,-1.0,0.0,0.0,0.0,0.0,0.0,0.0,0.0,0.0,-2.74586227459,-2.58538980399,-40.9877877277,-1.0,0.0,0.0,0.0,0.0,0.0,0.0,0.0,0.0
1492398274357778690,30,1492398274287889003,,-176.174935368,-3.60121786428,-1.61679031067,0.0,-1.0,0.0,0.0,0.0,0.0,0.0,0.0,0.0,0.0,-0.033276966975,0.0117537910875,-0.029613447675,-1.0,0.0,0.0,0.0,0.0,0.0,0.0,0.0,0.0,-2.74586227459,-2.58538980399,-40.9877877277,-1.0,0.0,0.0,0.0,0.0,0.0,0.0,0.0,0.0
1492398274457939277,31,1492398274308063030,,-176.217987393,1.31788684874,-1.61679031067,0.0,-1.0,0.0,0.0,0.0,0.0,0.0,0.0,0.0,0.0,-0.0346507867125,0.0085482117,-0.027171101475,-1.0,0.0,0.0,0.0,0.0,0.0,0.0,0.0,0.0,-2.71020172557,0.945004549046,-40.9877877277,-1.0,0.0,0.0,0.0,0.0,0.0,0.0,0.0,0.0
1492398274457952630,32,1492398274327997922,,-176.217987393,1.31788684874,-1.61679031067,0.0,-1.0,0.0,0.0,0.0,0.0,0.0,0.0,0.0,0.0,-0.0354140199,0.011906437725,-0.02991874095,-1.0,0.0,0.0,0.0,0.0,0.0,0.0,0.0,0.0,-2.71020172557,0.945004549046,-40.9877877277,-1.0,0.0,0.0,0.0,0.0,0.0,0.0,0.0,0.0
1492398274457957950,33,1492398274348004102,,-176.217987393,1.31788684874,-1.61679031067,0.0,-1.0,0.0,0.0,0.0,0.0,0.0,0.0,0.0,0.0,-0.035108726625,0.012211731,-0.02991874095,-1.0,0.0,0.0,0.0,0.0,0.0,0.0,0.0,0.0,-2.71020172557,0.945004549046,-40.9877877277,-1.0,0.0,0.0,0.0,0.0,0.0,0.0,0.0,0.0
1492398274457998959,34,1492398274367875099,,-176.217987393,1.31788684874,-1.38591785081,0.0,-1.0,0.0,0.0,0.0,0.0,0.0,0.0,0.0,0.0,-0.03480343335,0.0123643776375,-0.02991874095,-1.0,0.0,0.0,0.0,0.0,0.0,0.0,0.0,0.0,-2.71020172557,0.945004549046,-40.9877877277,-1.0,0.0,0.0,0.0,0.0,0.0,0.0,0.0,0.0
1492398274460859167,35,1492398274387885093,,-176.180684307,4.77613921517,-1.38591785081,0.0,-1.0,0.0,0.0,0.0,0.0,0.0,0.0,0.0,0.0,-0.035108726625,0.00915879825,-0.0300713875875,-1.0,0.0,0.0,0.0,0.0,0.0,0.0,0.0,0.0,-2.74586227459,3.43232784323,-40.9877877277,-1.0,0.0,0.0,0.0,0.0,0.0,0.0,0.0,0.0
1492398274479556504,36,1492398274407970905,,-176.180684307,4.77613921517,-1.38591785081,0.0,-1.0,0.0,0.0,0.0,0.0,0.0,0.0,0.0,0.0,-0.0334296136125,0.0099220314375,-0.033276966975,-1.0,0.0,0.0,0.0,0.0,0.0,0.0,0.0,0.0,-2.74586227459,3.43232784323,-40.9877877277,-1.0,0.0,0.0,0.0,0.0,0.0,0.0,0.0,0.0
1492398274497369103,37,1492398274428016901,,-176.180684307,4.77613921517,-1.38591785081,0.0,-1.0,0.0,0.0,0.0,0.0,0.0,0.0,0.0,0.0,-0.035108726625,0.0105326179875,-0.02991874095,-1.0,0.0,0.0,0.0,0.0,0.0,0.0,0.0,0.0,-2.74586227459,3.43232784323,-40.9877877277,-1.0,0.0,0.0,0.0,0.0,0.0,0.0,0.0,0.0
1492398274517539922,38,1492398274448170900,,-176.168530296,1.4172291859,-1.38591785081,0.0,-1.0,0.0,0.0,0.0,0.0,0.0,0.0,0.0,0.0,-0.0354140199,0.0126696709125,-0.0315978539625,-1.0,0.0,0.0,0.0,0.0,0.0,0.0,0.0,0.0,-2.74586227459,1.01632564709,-40.9877877277,-1.0,0.0,0.0,0.0,0.0,0.0,0.0,0.0,0.0
1492398274537275347,39,1492398274468024015,,-176.168530296,1.4172291859,-1.62992788538,0.0,-1.0,0.0,0.0,0.0,0.0,0.0,0.0,0.0,0.0,-0.034498140075,0.01160114445,-0.031445207325,-1.0,0.0,0.0,0.0,0.0,0.0,0.0,0.0,0.0,-2.74586227459,1.01632564709,-40.9877877277,-1.0,0.0,0.0,0.0,0.0,0.0,0.0,0.0,0.0
1492398274557195797,40,1492398274487900972,,-176.168530296,1.4172291859,-1.62992788538,0.0,-1.0,0.0,0.0,0.0,0.0,0.0,0.0,0.0,0.0,-0.0334296136125,0.011295851175,-0.0305293275,-1.0,0.0,0.0,0.0,0.0,0.0,0.0,0.0,0.0,-2.74586227459,1.01632564709,-40.9877877277,-1.0,0.0,0.0,0.0,0.0,0.0,0.0,0.0,0.0
1492398274577383200,41,1492398274507937908,,-176.16762953,0.683857929427,-1.62992788538,0.0,-1.0,0.0,0.0,0.0,0.0,0.0,0.0,0.0,0.0,-0.033276966975,0.0132802574625,-0.0319031472375,-1.0,0.0,0.0,0.0,0.0,0.0,0.0,0.0,0.0,-2.74586227459,0.490332549033,-40.9877877277,-1.0,0.0,0.0,0.0,0.0,0.0,0.0,0.0,0.0
1492398274597369005,42,1492398274527898073,,-176.16762953,0.683857929427,-1.62992788538,0.0,-1.0,0.0,0.0,0.0,0.0,0.0,0.0,0.0,0.0,-0.03358226025,0.011906437725,-0.0279343346625,-1.0,0.0,0.0,0.0,0.0,0.0,0.0,0.0,0.0,-2.74586227459,0.490332549033,-40.9877877277,-1.0,0.0,0.0,0.0,0.0,0.0,0.0,0.0,0.0
1492398274616912367,43,1492398274547890901,,-176.16762953,0.683857929427,-1.62992788538,0.0,-1.0,0.0,0.0,0.0,0.0,0.0,0.0,0.0,0.0,-0.0317505006,0.0120590843625,-0.0306819741375,-1.0,0.0,0.0,0.0,0.0,0.0,0.0,0.0,0.0,-2.74586227459,0.490332549033,-40.9877877277,-1.0,0.0,0.0,0.0,0.0,0.0,0.0,0.0,0.0
1492398274649226084,44,1492398274567902088,,-176.151595807,3.92300493819,-1.16438804012,0.0,-1.0,0.0,0.0,0.0,0.0,0.0,0.0,0.0,0.0,-0.0334296136125,0.0117537910875,-0.0319031472375,-1.0,0.0,0.0,0.0,0.0,0.0,0.0,0.0,0.0,-2.7636925491,2.81718337263,-40.9877877277,-1.0,0.0,0.0,0.0,0.0,0.0,0.0,0.0,0.0
1492398274657541632,45,1492398274587965965,,-176.151595807,3.92300493819,-1.16438804012,0.0,-1.0,0.0,0.0,0.0,0.0,0.0,0.0,0.0,0.0,-0.0352613732625,0.011906437725,-0.0312925606875,-1.0,0.0,0.0,0.0,0.0,0.0,0.0,0.0,0.0,-2.7636925491,2.81718337263,-40.9877877277,-1.0,0.0,0.0,0.0,0.0,0.0,0.0,0.0,0.0
1492398274679638279,46,1492398274607913017,,-176.151595807,3.92300493819,-1.16438804012,0.0,-1.0,0.0,0.0,0.0,0.0,0.0,0.0,0.0,0.0,-0.037551072825,0.0129749641875,-0.032055793875,-1.0,0.0,0.0,0.0,0.0,0.0,0.0,0.0,0.0,-2.7636925491,2.81718337263,-40.9877877277,-1.0,0.0,0.0,0.0,0.0,0.0,0.0,0.0,0.0
1492398274699892038,47,1492398274627918958,,-176.151595807,3.92300493819,-1.16438804012,0.0,-1.0,0.0,0.0,0.0,0.0,0.0,0.0,0.0,0.0,-0.0341928468,0.0102273247125,-0.0291555077625,-1.0,0.0,0.0,0.0,0.0,0.0,0.0,0.0,0.0,-2.7636925491,2.81718337263,-40.9877877277,-1.0,0.0,0.0,0.0,0.0,0.0,0.0,0.0,0.0
1492398274718447853,48,1492398274647881031,,-176.20049697,-3.78706821017,-1.16438804012,0.0,-1.0,0.0,0.0,0.0,0.0,0.0,0.0,0.0,0.0,-0.032055793875,0.012517024275,-0.0341928468,-1.0,0.0,0.0,0.0,0.0,0.0,0.0,0.0,0.0,-2.72803200008,-2.71911686282,-40.9877877277,-1.0,0.0,0.0,0.0,0.0,0.0,0.0,0.0,0.0
1492398274738770238,49,1492398274667969942,,-176.20049697,-3.78706821017,-1.39152665255,0.0,-1.0,0.0,0.0,0.0,0.0,0.0,0.0,0.0,0.0,-0.034498140075,0.0108379112625,-0.0317505006,-1.0,0.0,0.0,0.0,0.0,0.0,0.0,0.0,0.0,-2.72803200008,-2.71911686282,-40.9877877277,-1.0,0.0,0.0,0.0,0.0,0.0,0.0,0.0,0.0
1492398274757701160,50,1492398274687887907,,-176.20049697,-3.78706821017,-1.39152665255,0.0,-1.0,0.0,0.0,0.0,0.0,0.0,0.0,0.0,0.0,-0.0354140199,0.0123643776375,-0.030834620775,-1.0,0.0,0.0,0.0,0.0,0.0,0.0,0.0,0.0,-2.72803200008,-2.71911686282,-40.9877877277,-1.0,0.0,0.0,0.0,0.0,0.0,0.0,0.0,0.0
1492398274776968765,51,1492398274707942008,,-176.178256018,-4.31896212599,-1.39152665255,0.0,-1.0,0.0,0.0,0.0,0.0,0.0,0.0,0.0,0.0,-0.03602460645,0.0123643776375,-0.0322084405125,-1.0,0.0,0.0,0.0,0.0,0.0,0.0,0.0,0.0,-2.74586227459,-3.10246776479,-40.9877877277,-1.0,0.0,0.0,0.0,0.0,0.0,0.0,0.0,0.0
1492398274797412252,52,1492398274728049993,,-176.178256018,-4.31896212599,-1.39152665255,0.0,-1.0,0.0,0.0,0.0,0.0,0.0,0.0,0.0,0.0,-0.0329716737,0.012211731,-0.02869756785,-1.0,0.0,0.0,0.0,0.0,0.0,0.0,0.0,0.0,-2.74586227459,-3.10246776479,-40.9877877277,-1.0,0.0,0.0,0.0,0.0,0.0,0.0,0.0,0.0
1492398274817653128,53,1492398274747929096,,-176.178256018,-4.31896212599,-1.39152665255,0.0,-1.0,0.0,0.0,0.0,0.0,0.0,0.0,0.0,0.0,-0.03358226025,0.0109905579,-0.0306819741375,-1.0,0.0,0.0,0.0,0.0,0.0,0.0,0.0,0.0,-2.74586227459,-3.10246776479,-40.9877877277,-1.0,0.0,0.0,0.0,0.0,0.0,0.0,0.0,0.0
1492398274837785030,54,1492398274768299102,,-176.130314741,-0.547071774239,-1.61679031067,0.0,-1.0,0.0,0.0,0.0,0.0,0.0,0.0,0.0,0.0,-0.03480343335,0.0097693848,-0.0280869813,-1.0,0.0,0.0,0.0,0.0,0.0,0.0,0.0,0.0,-2.77260768635,-0.392266039227,-40.9877877277,-1.0,0.0,0.0,0.0,0.0,0.0,0.0,0.0,0.0
1492398274857250845,55,1492398274787910938,,-176.130314741,-0.547071774239,-1.61679031067,0.0,-1.0,0.0,0.0,0.0,0.0,0.0,0.0,0.0,0.0,-0.0337349068875,0.0132802574625,-0.033887553525,-1.0,0.0,0.0,0.0,0.0,0.0,0.0,0.0,0.0,-2.77260768635,-0.392266039227,-40.9877877277,-1.0,0.0,0.0,0.0,0.0,0.0,0.0,0.0,0.0
1492398274877248326,56,1492398274807925939,,-176.130314741,-0.547071774239,-1.61679031067,0.0,-1.0,0.0,0.0,0.0,0.0,0.0,0.0,0.0,0.0,-0.0329716737,0.010685264625,-0.0297660943125,-1.0,0.0,0.0,0.0,0.0,0.0,0.0,0.0,0.0,-2.77260768635,-0.392266039227,-40.9877877277,-1.0,0.0,0.0,0.0,0.0,0.0,0.0,0.0,0.0
1492398274897644017,57,1492398274828344106,,-176.157819657,2.21218596887,-1.61679031067,0.0,-1.0,0.0,0.0,0.0,0.0,0.0,0.0,0.0,0.0,-0.0352613732625,0.01404349065,-0.0328190270625,-1.0,0.0,0.0,0.0,0.0,0.0,0.0,0.0,0.0,-2.75477741184,1.58689443142,-40.9877877277,-1.0,0.0,0.0,0.0,0.0,0.0,0.0,0.0,0.0
1492398274917766472,58,1492398274848097085,,-176.157819657,2.21218596887,-1.61679031067,0.0,-1.0,0.0,0.0,0.0,0.0,0.0,0.0,0.0,0.0,-0.035108726625,0.01037997135,-0.0312925606875,-1.0,0.0,0.0,0.0,0.0,0.0,0.0,0.0,0.0,-2.75477741184,1.58689443142,-40.9877877277,-1.0,0.0,0.0,0.0,0.0,0.0,0.0,0.0,0.0
1492398274937712882,59,1492398274868271112,,-176.157819657,2.21218596887,-1.16913932791,0.0,-1.0,0.0,0.0,0.0,0.0,0.0,0.0,0.0,0.0,-0.0355666665375,0.0099220314375,-0.032666380425,-1.0,0.0,0.0,0.0,0.0,0.0,0.0,0.0,0.0,-2.75477741184,1.58689443142,-40.9877877277,-1.0,0.0,0.0,0.0,0.0,0.0,0.0,0.0,0.0
1492398274957216673,60,1492398274887913942,,-176.157819657,2.21218596887,-1.16913932791,0.0,-1.0,0.0,0.0,0.0,0.0,0.0,0.0,0.0,0.0,-0.0331243203375,0.0129749641875,-0.0349560799875,-1.0,0.0,0.0,0.0,0.0,0.0,0.0,0.0,0.0,-2.75477741184,1.58689443142,-40.9877877277,-1.0,0.0,0.0,0.0,0.0,0.0,0.0,0.0,0.0
1492398274977228694,61,1492398274907907009,,-176.143565477,1.31777255814,-1.16913932791,0.0,-1.0,0.0,0.0,0.0,0.0,0.0,0.0,0.0,0.0,-0.0361772530875,0.0123643776375,-0.0297660943125,-1.0,0.0,0.0,0.0,0.0,0.0,0.0,0.0,0.0,-2.7636925491,0.945004549046,-40.9877877277,-1.0,0.0,0.0,0.0,0.0,0.0,0.0,0.0,0.0
1492398274997456046,62,1492398274927898883,,-176.143565477,1.31777255814,-1.16913932791,0.0,-1.0,0.0,0.0,0.0,0.0,0.0,0.0,0.0,0.0,-0.0322084405125,0.009464091525,-0.0309872674125,-1.0,0.0,0.0,0.0,0.0,0.0,0.0,0.0,0.0,-2.7636925491,0.945004549046,-40.9877877277,-1.0,0.0,0.0,0.0,0.0,0.0,0.0,0.0,0.0
1492398275017332643,63,1492398274947909116,,-176.143565477,1.31777255814,-1.16913932791,0.0,-1.0,0.0,0.0,0.0,0.0,0.0,0.0,0.0,0.0,-0.0341928468,0.0105326179875,-0.0297660943125,-1.0,0.0,0.0,0.0,0.0,0.0,0.0,0.0,0.0,-2.7636925491,0.945004549046,-40.9877877277,-1.0,0.0,0.0,0.0,0.0,0.0,0.0,0.0,0.0
1492398275037383207,64,1492398274967931032,,-176.117734239,0.049734567014,-1.38035407344,0.0,-1.0,0.0,0.0,0.0,0.0,0.0,0.0,0.0,0.0,-0.03480343335,0.0120590843625,-0.032055793875,-1.0,0.0,0.0,0.0,0.0,0.0,0.0,0.0,0.0,-2.78152282361,0.0356605490206,-40.9877877277,-1.0,0.0,0.0,0.0,0.0,0.0,0.0,0.0,0.0
1492398275057386918,65,1492398274987934112,,-176.117734239,0.049734567014,-1.38035407344,0.0,-1.0,0.0,0.0,0.0,0.0,0.0,0.0,0.0,0.0,-0.033887553525,0.010685264625,-0.0300713875875,-1.0,0.0,0.0,0.0,0.0,0.0,0.0,0.0,0.0,-2.78152282361,0.0356605490206,-40.9877877277,-1.0,0.0,0.0,0.0,0.0,0.0,0.0,0.0,0.0
1492398275077389354,66,1492398275008013010,,-176.117734239,0.049734567014,-1.38035407344,0.0,-1.0,0.0,0.0,0.0,0.0,0.0,0.0,0.0,0.0,-0.032666380425,0.01037997135,-0.031445207325,-1.0,0.0,0.0,0.0,0.0,0.0,0.0,0.0,0.0,-2.78152282361,0.0356605490206,-40.9877877277,-1.0,0.0,0.0,0.0,0.0,0.0,0.0,0.0,0.0
1492398275097271239,67,1492398275027910947,,-176.193550111,1.54153452843,-1.38035407344,0.0,-1.0,0.0,0.0,0.0,0.0,0.0,0.0,0.0,0.0,-0.032055793875,0.012211731,-0.0328190270625,-1.0,0.0,0.0,0.0,0.0,0.0,0.0,0.0,0.0,-2.72803200008,1.10547701964,-40.9877877277,-1.0,0.0,0.0,0.0,0.0,0.0,0.0,0.0,0.0
1492398275116677036,68,1492398275047862052,,-176.193550111,1.54153452843,-1.38035407344,0.0,-1.0,0.0,0.0,0.0,0.0,0.0,0.0,0.0,0.0,-0.036940486275,0.0141961372875,-0.031445207325,-1.0,0.0,0.0,0.0,0.0,0.0,0.0,0.0,0.0,-2.72803200008,1.10547701964,-40.9877877277,-1.0,0.0,0.0,0.0,0.0,0.0,0.0,0.0,0.0
1492398275136978315,69,1492398275068041086,,-176.193550111,1.54153452843,-1.38035407344,0.0,-1.0,0.0,0.0,0.0,0.0,0.0,0.0,0.0,0.0,-0.0340402001625,0.0123643776375,-0.032666380425,-1.0,0.0,0.0,0.0,0.0,0.0,0.0,0.0,0.0,-2.72803200008,1.10547701964,-40.9877877277,-1.0,0.0,0.0,0.0,0.0,0.0,0.0,0.0,0.0
1492398275158654852,70,1492398275088785886,,-176.095050214,-1.88917339235,-1.61679031067,0.0,-1.0,0.0,0.0,0.0,0.0,0.0,0.0,0.0,0.0,-0.032055793875,0.01037997135,-0.0315978539625,-1.0,0.0,0.0,0.0,0.0,0.0,0.0,0.0,0.0,-2.79935309812,-1.35510086278,-40.9877877277,-1.0,0.0,0.0,0.0,0.0,0.0,0.0,0.0,0.0
1492398275181045236,71,1492398275108877897,,-176.095050214,-1.88917339235,-1.61679031067,0.0,-1.0,0.0,0.0,0.0,0.0,0.0,0.0,0.0,0.0,-0.03358226025,0.0120590843625,-0.031445207325,-1.0,0.0,0.0,0.0,0.0,0.0,0.0,0.0,0.0,-2.79935309812,-1.35510086278,-40.9877877277,-1.0,0.0,0.0,0.0,0.0,0.0,0.0,0.0,0.0
1492398275198170410,72,1492398275128961086,,-176.095050214,-1.88917339235,-1.61679031067,0.0,-1.0,0.0,0.0,0.0,0.0,0.0,0.0,0.0,0.0,-0.03480343335,0.01282231755,-0.0331243203375,-1.0,0.0,0.0,0.0,0.0,0.0,0.0,0.0,0.0,-2.79935309812,-1.35510086278,-40.9877877277,-1.0,0.0,0.0,0.0,0.0,0.0,0.0,0.0,0.0
1492398275217455176,73,1492398275148312091,,-176.095050214,-1.88917339235,-1.61679031067,0.0,-1.0,0.0,0.0,0.0,0.0,0.0,0.0,0.0,0.0,-0.033276966975,0.0132802574625,-0.0305293275,-1.0,0.0,0.0,0.0,0.0,0.0,0.0,0.0,0.0,-2.79935309812,-1.35510086278,-40.9877877277,-1.0,0.0,0.0,0.0,0.0,0.0,0.0,0.0,0.0
1492398275237719955,74,1492398275168056964,,-176.218607948,4.92449709875,-1.61679031067,0.0,-1.0,0.0,0.0,0.0,0.0,0.0,0.0,0.0,0.0,-0.0337349068875,0.01282231755,-0.0303766808625,-1.0,0.0,0.0,0.0,0.0,0.0,0.0,0.0,0.0,-2.71911686282,3.53930949029,-40.9877877277,-1.0,0.0,0.0,0.0,0.0,0.0,0.0,0.0,0.0
1492398275256775216,75,1492398275187962055,,-176.218607948,4.92449709875,-1.62992788538,0.0,-1.0,0.0,0.0,0.0,0.0,0.0,0.0,0.0,0.0,-0.0319031472375,0.0105326179875,-0.03113991405,-1.0,0.0,0.0,0.0,0.0,0.0,0.0,0.0,0.0,-2.71911686282,3.53930949029,-40.9877877277,-1.0,0.0,0.0,0.0,0.0,0.0,0.0,0.0,0.0
1492398275276812755,76,1492398275207923889,,-176.218607948,4.92449709875,-1.62992788538,0.0,-1.0,0.0,0.0,0.0,0.0,0.0,0.0,0.0,0.0,-0.035108726625,0.013738197375,-0.0315978539625,-1.0,0.0,0.0,0.0,0.0,0.0,0.0,0.0,0.0,-2.71911686282,3.53930949029,-40.9877877277,-1.0,0.0,0.0,0.0,0.0,0.0,0.0,0.0,0.0
1492398275298917901,77,1492398275227905035,,-176.131014254,-1.21833141542,-1.62992788538,0.0,-1.0,0.0,0.0,0.0,0.0,0.0,0.0,0.0,0.0,-0.035108726625,0.0120590843625,-0.0312925606875,-1.0,0.0,0.0,0.0,0.0,0.0,0.0,0.0,0.0,-2.77260768635,-0.873683451005,-40.9877877277,-1.0,0.0,0.0,0.0,0.0,0.0,0.0,0.0,0.0
1492398275316781381,78,1492398275247941017,,-176.131014254,-1.21833141542,-1.62992788538,0.0,-1.0,0.0,0.0,0.0,0.0,0.0,0.0,0.0,0.0,-0.0328190270625,0.0123643776375,-0.0303766808625,-1.0,0.0,0.0,0.0,0.0,0.0,0.0,0.0,0.0,-2.77260768635,-0.873683451005,-40.9877877277,-1.0,0.0,0.0,0.0,0.0,0.0,0.0,0.0,0.0
1492398275336676366,79,1492398275267894983,,-176.131014254,-1.21833141542,-1.62992788538,0.0,-1.0,0.0,0.0,0.0,0.0,0.0,0.0,0.0,0.0,-0.03236108715,0.0111432045375,-0.0306819741375,-1.0,0.0,0.0,0.0,0.0,0.0,0.0,0.0,0.0,-2.77260768635,-0.873683451005,-40.9877877277,-1.0,0.0,0.0,0.0,0.0,0.0,0.0,0.0,0.0
1492398275356720091,80,1492398275287895917,,-176.155150046,0.584386680453,-1.40288153265,0.0,-1.0,0.0,0.0,0.0,0.0,0.0,0.0,0.0,0.0,-0.0319031472375,0.0109905579,-0.030834620775,-1.0,0.0,0.0,0.0,0.0,0.0,0.0,0.0,0.0,-2.75477741184,0.419011450992,-40.9877877277,-1.0,0.0,0.0,0.0,0.0,0.0,0.0,0.0,0.0
1492398275376738089,81,1492398275307950019,,-176.155150046,0.584386680453,-1.40288153265,0.0,-1.0,0.0,0.0,0.0,0.0,0.0,0.0,0.0,0.0,-0.0367878396375,0.0093114448875,-0.0293081544,-1.0,0.0,0.0,0.0,0.0,0.0,0.0,0.0,0.0,-2.75477741184,0.419011450992,-40.9877877277,-1.0,0.0,0.0,0.0,0.0,0.0,0.0,0.0,0.0
1492398275396839466,82,1492398275327920913,,-176.155150046,0.584386680453,-1.40288153265,0.0,-1.0,0.0,0.0,0.0,0.0,0.0,0.0,0.0,0.0,-0.0355666665375,0.0138908440125,-0.0300713875875,-1.0,0.0,0.0,0.0,0.0,0.0,0.0,0.0,0.0,-2.75477741184,0.419011450992,-40.9877877277,-1.0,0.0,0.0,0.0,0.0,0.0,0.0,0.0,0.0
1492398275416962255,83,1492398275347914934,,-176.1058865,-0.969717426668,-1.40288153265,0.0,-1.0,0.0,0.0,0.0,0.0,0.0,0.0,0.0,0.0,-0.03480343335,0.012517024275,-0.0312925606875,-1.0,0.0,0.0,0.0,0.0,0.0,0.0,0.0,0.0,-2.79043796086,-0.695380705902,-40.9877877277,-1.0,0.0,0.0,0.0,0.0,0.0,0.0,0.0,0.0
1492398275436779112,84,1492398275367925882,,-176.1058865,-0.969717426668,-1.40288153265,0.0,-1.0,0.0,0.0,0.0,0.0,0.0,0.0,0.0,0.0,-0.03358226025,0.01160114445,-0.0319031472375,-1.0,0.0,0.0,0.0,0.0,0.0,0.0,0.0,0.0,-2.79043796086,-0.695380705902,-40.9877877277,-1.0,0.0,0.0,0.0,0.0,0.0,0.0,0.0,0.0
1492398275456711664,85,1492398275387908935,,-176.1058865,-0.969717426668,-1.61679031067,0.0,-1.0,0.0,0.0,0.0,0.0,0.0,0.0,0.0,0.0,-0.0352613732625,0.0135855507375,-0.0319031472375,-1.0,0.0,0.0,0.0,0.0,0.0,0.0,0.0,0.0,-2.79043796086,-0.695380705902,-40.9877877277,-1.0,0.0,0.0,0.0,0.0,0.0,0.0,0.0,0.0
1492398275476650484,86,1492398275407890081,,-176.1058865,-0.969717426668,-1.61679031067,0.0,-1.0,0.0,0.0,0.0,0.0,0.0,0.0,0.0,0.0,-0.0340402001625,0.0123643776375,-0.030834620775,-1.0,0.0,0.0,0.0,0.0,0.0,0.0,0.0,0.0,-2.79043796086,-0.695380705902,-40.9877877277,-1.0,0.0,0.0,0.0,0.0,0.0,0.0,0.0,0.0
1492398275498976088,87,1492398275428042888,,-176.153326223,4.28174460422,-1.61679031067,0.0,-1.0,0.0,0.0,0.0,0.0,0.0,0.0,0.0,0.0,-0.0343454934375,0.0134329041,-0.030834620775,-1.0,0.0,0.0,0.0,0.0,0.0,0.0,0.0,0.0,-2.7636925491,3.07572235303,-40.9877877277,-1.0,0.0,0.0,0.0,0.0,0.0,0.0,0.0,0.0
1492398275523766130,88,1492398275447887897,,-176.153326223,4.28174460422,-1.61679031067,0.0,-1.0,0.0,0.0,0.0,0.0,0.0,0.0,0.0,0.0,-0.0334296136125,0.0126696709125,-0.0317505006,-1.0,0.0,0.0,0.0,0.0,0.0,0.0,0.0,0.0,-2.7636925491,3.07572235303,-40.9877877277,-1.0,0.0,0.0,0.0,0.0,0.0,0.0,0.0,0.0
1492398275537770418,89,1492398275467969894,,-176.153326223,4.28174460422,-1.61679031067,0.0,-1.0,0.0,0.0,0.0,0.0,0.0,0.0,0.0,0.0,-0.0328190270625,0.0111432045375,-0.028392274575,-1.0,0.0,0.0,0.0,0.0,0.0,0.0,0.0,0.0,-2.7636925491,3.07572235303,-40.9877877277,-1.0,0.0,0.0,0.0,0.0,0.0,0.0,0.0,0.0
1492398275556679581,90,1492398275487911939,,-176.138934955,3.86106504535,-0.884806560835,0.0,-1.0,0.0,0.0,0.0,0.0,0.0,0.0,0.0,0.0,-0.0346507867125,0.0108379112625,-0.02991874095,-1.0,0.0,0.0,0.0,0.0,0.0,0.0,0.0,0.0,-2.77260768635,2.77260768635,-40.9877877277,-1.0,0.0,0.0,0.0,0.0,0.0,0.0,0.0,0.0
1492398275576751103,91,1492398275507917881,,-176.138934955,3.86106504535,-0.884806560835,0.0,-1.0,0.0,0.0,0.0,0.0,0.0,0.0,0.0,0.0,-0.0331243203375,0.0117537910875,-0.0312925606875,-1.0,0.0,0.0,0.0,0.0,0.0,0.0,0.0,0.0,-2.77260768635,2.77260768635,-40.9877877277,-1.0,0.0,0.0,0.0,0.0,0.0,0.0,0.0,0.0
1492398275596620721,92,1492398275527889966,,-176.138934955,3.86106504535,-0.884806560835,0.0,-1.0,0.0,0.0,0.0,0.0,0.0,0.0,0.0,0.0,-0.03480343335,0.0134329041,-0.033276966975,-1.0,0.0,0.0,0.0,0.0,0.0,0.0,0.0,0.0,-2.77260768635,2.77260768635,-40.9877877277,-1.0,0.0,0.0,0.0,0.0,0.0,0.0,0.0,0.0
1492398275616693424,93,1492398275547924995,,-176.204537451,-4.61570877818,-0.884806560835,0.0,-1.0,0.0,0.0,0.0,0.0,0.0,0.0,0.0,0.0,-0.0354140199,0.0132802574625,-0.0340402001625,-1.0,0.0,0.0,0.0,0.0,0.0,0.0,0.0,0.0,-2.72803200008,-3.31643105892,-40.9877877277,-1.0,0.0,0.0,0.0,0.0,0.0,0.0,0.0,0.0
1492398275637283270,94,1492398275567935943,,-176.204537451,-4.61570877818,-0.884806560835,0.0,-1.0,0.0,0.0,0.0,0.0,0.0,0.0,0.0,0.0,-0.0343454934375,0.013127610825,-0.0331243203375,-1.0,0.0,0.0,0.0,0.0,0.0,0.0,0.0,0.0,-2.72803200008,-3.31643105892,-40.9877877277,-1.0,0.0,0.0,0.0,0.0,0.0,0.0,0.0,0.0
1492398275656708564,95,1492398275587905883,,-176.204537451,-4.61570877818,-1.85508525349,0.0,-1.0,0.0,0.0,0.0,0.0,0.0,0.0,0.0,0.0,-0.034498140075,0.0114484978125,-0.0317505006,-1.0,0.0,0.0,0.0,0.0,0.0,0.0,0.0,0.0,-2.72803200008,-3.31643105892,-40.9877877277,-1.0,0.0,0.0,0.0,0.0,0.0,0.0,0.0,0.0
1492398275676739852,96,1492398275607964992,,-176.118084656,0.770839471216,-1.85508525349,0.0,-1.0,0.0,0.0,0.0,0.0,0.0,0.0,0.0,0.0,-0.0334296136125,0.011295851175,-0.0306819741375,-1.0,0.0,0.0,0.0,0.0,0.0,0.0,0.0,0.0,-2.78152282361,0.552738509819,-40.9877877277,-1.0,0.0,0.0,0.0,0.0,0.0,0.0,0.0,0.0
1492398275696530593,97,1492398275627885103,,-176.118084656,0.770839471216,-1.85508525349,0.0,-1.0,0.0,0.0,0.0,0.0,0.0,0.0,0.0,0.0,-0.032055793875,0.0109905579,-0.0315978539625,-1.0,0.0,0.0,0.0,0.0,0.0,0.0,0.0,0.0,-2.78152282361,0.552738509819,-40.9877877277,-1.0,0.0,0.0,0.0,0.0,0.0,0.0,0.0,0.0
1492398275716599914,98,1492398275647922992,,-176.118084656,0.770839471216,-1.85508525349,0.0,-1.0,0.0,0.0,0.0,0.0,0.0,0.0,0.0,0.0,-0.035719313175,0.012517024275,-0.0312925606875,-1.0,0.0,0.0,0.0,0.0,0.0,0.0,0.0,0.0,-2.78152282361,0.552738509819,-40.9877877277,-1.0,0.0,0.0,0.0,0.0,0.0,0.0,0.0,0.0
1492398275736637758,99,1492398275667936086,,-176.118084656,0.770839471216,-1.85508525349,0.0,-1.0,0.0,0.0,0.0,0.0,0.0,0.0,0.0,0.0,-0.0355666665375,0.0126696709125,-0.0329716737,-1.0,0.0,0.0,0.0,0.0,0.0,0.0,0.0,0.0,-2.78152282361,0.552738509819,-40.9877877277,-1.0,0.0,0.0,0.0,0.0,0.0,0.0,0.0,0.0
1492398275756764628,100,1492398275688061952,,-176.120162961,2.0258394862,-0.927785774462,0.0,-1.0,0.0,0.0,0.0,0.0,0.0,0.0,0.0,0.0,-0.0334296136125,0.01037997135,-0.02991874095,-1.0,0.0,0.0,0.0,0.0,0.0,0.0,0.0,0.0,-2.78152282361,1.45316737259,-40.9877877277,-1.0,0.0,0.0,0.0,0.0,0.0,0.0,0.0,0.0
1492398275776559008,101,1492398275707901000,,-176.120162961,2.0258394862,-0.927785774462,0.0,-1.0,0.0,0.0,0.0,0.0,0.0,0.0,0.0,0.0,-0.0364825463625,0.0123643776375,-0.030224034225,-1.0,0.0,0.0,0.0,0.0,0.0,0.0,0.0,0.0,-2.78152282361,1.45316737259,-40.9877877277,-1.0,0.0,0.0,0.0,0.0,0.0,0.0,0.0,0.0
1492398275796643271,102,1492398275727946996,,-176.120162961,2.0258394862,-0.927785774462,0.0,-1.0,0.0,0.0,0.0,0.0,0.0,0.0,0.0,0.0,-0.0349560799875,0.0108379112625,-0.0288502144875,-1.0,0.0,0.0,0.0,0.0,0.0,0.0,0.0,0.0,-2.78152282361,1.45316737259,-40.9877877277,-1.0,0.0,0.0,0.0,0.0,0.0,0.0,0.0,0.0
1492398275816623321,103,1492398275747873067,,-176.167403946,-0.285988157871,-0.927785774462,0.0,-1.0,0.0,0.0,0.0,0.0,0.0,0.0,0.0,0.0,-0.0343454934375,0.0126696709125,-0.030224034225,-1.0,0.0,0.0,0.0,0.0,0.0,0.0,0.0,0.0,-2.74586227459,-0.205048156868,-40.9877877277,-1.0,0.0,0.0,0.0,0.0,0.0,0.0,0.0,0.0
1492398275836525145,104,1492398275767924070,,-176.167403946,-0.285988157871,-0.927785774462,0.0,-1.0,0.0,0.0,0.0,0.0,0.0,0.0,0.0,0.0,-0.0334296136125,0.0129749641875,-0.029002861125,-1.0,0.0,0.0,0.0,0.0,0.0,0.0,0.0,0.0,-2.74586227459,-0.205048156868,-40.9877877277,-1.0,0.0,0.0,0.0,0.0,0.0,0.0,0.0,0.0
1492398275856883955,105,1492398275788203001,,-176.167403946,-0.285988157871,-1.60386277115,0.0,-1.0,0.0,0.0,0.0,0.0,0.0,0.0,0.0,0.0,-0.0334296136125,0.010685264625,-0.0322084405125,-1.0,0.0,0.0,0.0,0.0,0.0,0.0,0.0,0.0,-2.74586227459,-0.205048156868,-40.9877877277,-1.0,0.0,0.0,0.0,0.0,0.0,0.0,0.0,0.0
1492398275877640320,106,1492398275807914972,,-176.180353874,1.00709490933,-1.60386277115,0.0,-1.0,0.0,0.0,0.0,0.0,0.0,0.0,0.0,0.0,-0.033276966975,0.0117537910875,-0.032666380425,-1.0,0.0,0.0,0.0,0.0,0.0,0.0,0.0,0.0,-2.73694713733,0.722126117667,-40.9877877277,-1.0,0.0,0.0,0.0,0.0,0.0,0.0,0.0,0.0
1492398275897394922,107,1492398275828093051,,-176.180353874,1.00709490933,-1.60386277115,0.0,-1.0,0.0,0.0,0.0,0.0,0.0,0.0,0.0,0.0,-0.035719313175,0.012211731,-0.03113991405,-1.0,0.0,0.0,0.0,0.0,0.0,0.0,0.0,0.0,-2.73694713733,0.722126117667,-40.9877877277,-1.0,0.0,0.0,0.0,0.0,0.0,0.0,0.0,0.0
1492398275916760328,108,1492398275847940921,,-176.180353874,1.00709490933,-1.60386277115,0.0,-1.0,0.0,0.0,0.0,0.0,0.0,0.0,0.0,0.0,-0.0340402001625,0.0123643776375,-0.0276290413875,-1.0,0.0,0.0,0.0,0.0,0.0,0.0,0.0,0.0,-2.73694713733,0.722126117667,-40.9877877277,-1.0,0.0,0.0,0.0,0.0,0.0,0.0,0.0,0.0
1492398275936859987,109,1492398275867928981,,-176.155006423,0.310851708376,-1.60386277115,0.0,-1.0,0.0,0.0,0.0,0.0,0.0,0.0,0.0,0.0,-0.0343454934375,0.0102273247125,-0.025949928375,-1.0,0.0,0.0,0.0,0.0,0.0,0.0,0.0,0.0,-2.75477741184,0.222878431379,-40.9877877277,-1.0,0.0,0.0,0.0,0.0,0.0,0.0,0.0,0.0
1492398275956818024,110,1492398275888114929,,-176.155006423,0.310851708376,-1.62333252509,0.0,-1.0,0.0,0.0,0.0,0.0,0.0,0.0,0.0,0.0,-0.034498140075,0.0109905579,-0.0328190270625,-1.0,0.0,0.0,0.0,0.0,0.0,0.0,0.0,0.0,-2.75477741184,0.222878431379,-40.9877877277,-1.0,0.0,0.0,0.0,0.0,0.0,0.0,0.0,0.0
1492398275976815439,111,1492398275907898902,,-176.155006423,0.310851708376,-1.62333252509,0.0,-1.0,0.0,0.0,0.0,0.0,0.0,0.0,0.0,0.0,-0.032055793875,0.01160114445,-0.0279343346625,-1.0,0.0,0.0,0.0,0.0,0.0,0.0,0.0,0.0,-2.75477741184,0.222878431379,-40.9877877277,-1.0,0.0,0.0,0.0,0.0,0.0,0.0,0.0,0.0
1492398275996701074,112,1492398275927918910,,-176.155006423,0.310851708376,-1.62333252509,0.0,-1.0,0.0,0.0,0.0,0.0,0.0,0.0,0.0,0.0,-0.033276966975,0.01282231755,-0.0306819741375,-1.0,0.0,0.0,0.0,0.0,0.0,0.0,0.0,0.0,-2.75477741184,0.222878431379,-40.9877877277,-1.0,0.0,0.0,0.0,0.0,0.0,0.0,0.0,0.0
1492398276098921658,113,1492398275947984933,,-176.156457877,1.60359171043,-1.62333252509,0.0,-1.0,0.0,0.0,0.0,0.0,0.0,0.0,0.0,0.0,-0.0354140199,0.0129749641875,-0.0280869813,-1.0,0.0,0.0,0.0,0.0,0.0,0.0,0.0,0.0,-2.75477741184,1.15005270591,-40.9877877277,-1.0,0.0,0.0,0.0,0.0,0.0,0.0,0.0,0.0
1492398276098940770,114,1492398275967962026,,-176.156457877,1.60359171043,-1.62333252509,0.0,-1.0,0.0,0.0,0.0,0.0,0.0,0.0,0.0,0.0,-0.0346507867125,0.01037997135,-0.0305293275,-1.0,0.0,0.0,0.0,0.0,0.0,0.0,0.0,0.0,-2.75477741184,1.15005270591,-40.9877877277,-1.0,0.0,0.0,0.0,0.0,0.0,0.0,0.0,0.0
1492398276098945617,115,1492398275987931966,,-176.156457877,1.60359171043,-1.85508525349,0.0,-1.0,0.0,0.0,0.0,0.0,0.0,0.0,0.0,0.0,-0.0341928468,0.0105326179875,-0.02747639475,-1.0,0.0,0.0,0.0,0.0,0.0,0.0,0.0,0.0,-2.75477741184,1.15005270591,-40.9877877277,-1.0,0.0,0.0,0.0,0.0,0.0,0.0,0.0,0.0
1492398276098968757,116,1492398276007942914,,-176.168790353,-1.56634042495,-1.85508525349,0.0,-1.0,0.0,0.0,0.0,0.0,0.0,0.0,0.0,0.0,-0.0319031472375,0.01160114445,-0.0343454934375,-1.0,0.0,0.0,0.0,0.0,0.0,0.0,0.0,0.0,-2.74586227459,-1.12330729415,-40.9877877277,-1.0,0.0,0.0,0.0,0.0,0.0,0.0,0.0,0.0
1492398276105721198,117,1492398276027903079,,-176.168790353,-1.56634042495,-1.85508525349,0.0,-1.0,0.0,0.0,0.0,0.0,0.0,0.0,0.0,0.0,-0.035719313175,0.0109905579,-0.0319031472375,-1.0,0.0,0.0,0.0,0.0,0.0,0.0,0.0,0.0,-2.74586227459,-1.12330729415,-40.9877877277,-1.0,0.0,0.0,0.0,0.0,0.0,0.0,0.0,0.0
1492398276118093640,118,1492398276047966957,,-176.168790353,-1.56634042495,-1.85508525349,0.0,-1.0,0.0,0.0,0.0,0.0,0.0,0.0,0.0,0.0,-0.0354140199,0.0123643776375,-0.032666380425,-1.0,0.0,0.0,0.0,0.0,0.0,0.0,0.0,0.0,-2.74586227459,-1.12330729415,-40.9877877277,-1.0,0.0,0.0,0.0,0.0,0.0,0.0,0.0,0.0
1492398276136700624,119,1492398276067908048,,-176.163523313,-3.82404240661,-1.85508525349,0.0,-1.0,0.0,0.0,0.0,0.0,0.0,0.0,0.0,0.0,-0.03236108715,0.011906437725,-0.0294608010375,-1.0,0.0,0.0,0.0,0.0,0.0,0.0,0.0,0.0,-2.75477741184,-2.74586227459,-40.9877877277,-1.0,0.0,0.0,0.0,0.0,0.0,0.0,0.0,0.0
1492398276160421299,120,1492398276089456081,,-176.163523313,-3.82404240661,-1.85508525349,0.0,-1.0,0.0,0.0,0.0,0.0,0.0,0.0,0.0,0.0,-0.033276966975,0.011295851175,-0.030834620775,-1.0,0.0,0.0,0.0,0.0,0.0,0.0,0.0,0.0,-2.75477741184,-2.74586227459,-40.9877877277,-1.0,0.0,0.0,0.0,0.0,0.0,0.0,0.0,0.0
1492398276178779809,121,1492398276108669996,,-176.163523313,-3.82404240661,-1.3971810273,0.0,-1.0,0.0,0.0,0.0,0.0,0.0,0.0,0.0,0.0,-0.035108726625,0.0114484978125,-0.0279343346625,-1.0,0.0,0.0,0.0,0.0,0.0,0.0,0.0,0.0,-2.75477741184,-2.74586227459,-40.9877877277,-1.0,0.0,0.0,0.0,0.0,0.0,0.0,0.0,0.0
1492398276197927637,122,1492398276128798961,,-176.086100333,-3.05564093246,-1.3971810273,0.0,-1.0,0.0,0.0,0.0,0.0,0.0,0.0,0.0,0.0,-0.033887553525,0.0117537910875,-0.0306819741375,-1.0,0.0,0.0,0.0,0.0,0.0,0.0,0.0,0.0,-2.80826823537,-2.19312376477,-40.9877877277,-1.0,0.0,0.0,0.0,0.0,0.0,0.0,0.0,0.0
1492398276220686889,123,1492398276148503065,,-176.086100333,-3.05564093246,-1.3971810273,0.0,-1.0,0.0,0.0,0.0,0.0,0.0,0.0,0.0,0.0,-0.0361772530875,0.0123643776375,-0.0306819741375,-1.0,0.0,0.0,0.0,0.0,0.0,0.0,0.0,0.0,-2.80826823537,-2.19312376477,-40.9877877277,-1.0,0.0,0.0,0.0,0.0,0.0,0.0,0.0,0.0
1492398276237876380,124,1492398276168304920,,-176.086100333,-3.05564093246,-1.3971810273,0.0,-1.0,0.0,0.0,0.0,0.0,0.0,0.0,0.0,0.0,-0.033887553525,0.0114484978125,-0.0270184548375,-1.0,0.0,0.0,0.0,0.0,0.0,0.0,0.0,0.0,-2.80826823537,-2.19312376477,-40.9877877277,-1.0,0.0,0.0,0.0,0.0,0.0,0.0,0.0,0.0
1492398276338983768,125,1492398276188007116,,-176.086100333,-3.05564093246,-1.3971810273,0.0,-1.0,0.0,0.0,0.0,0.0,0.0,0.0,0.0,0.0,-0.0334296136125,0.0111432045375,-0.0280869813,-1.0,0.0,0.0,0.0,0.0,0.0,0.0,0.0,0.0,-2.80826823537,-2.19312376477,-40.9877877277,-1.0,0.0,0.0,0.0,0.0,0.0,0.0,0.0,0.0
1492398276339001989,126,1492398276208082914,,-176.136531081,-3.29133908563,-1.37483478057,0.0,-1.0,0.0,0.0,0.0,0.0,0.0,0.0,0.0,0.0,-0.034498140075,0.011295851175,-0.0317505006,-1.0,0.0,0.0,0.0,0.0,0.0,0.0,0.0,0.0,-2.77260768635,-2.36251137261,-40.9877877277,-1.0,0.0,0.0,0.0,0.0,0.0,0.0,0.0,0.0
1492398276339011366,127,1492398276227925062,,-176.136531081,-3.29133908563,-1.37483478057,0.0,-1.0,0.0,0.0,0.0,0.0,0.0,0.0,0.0,0.0,-0.034498140075,0.010074678075,-0.0305293275,-1.0,0.0,0.0,0.0,0.0,0.0,0.0,0.0,0.0,-2.77260768635,-2.36251137261,-40.9877877277,-1.0,0.0,0.0,0.0,0.0,0.0,0.0,0.0,0.0
1492398276339016533,128,1492398276247852087,,-176.136531081,-3.29133908563,-1.37483478057,0.0,-1.0,0.0,0.0,0.0,0.0,0.0,0.0,0.0,0.0,-0.0328190270625,0.0093114448875,-0.0282396279375,-1.0,0.0,0.0,0.0,0.0,0.0,0.0,0.0,0.0,-2.77260768635,-2.36251137261,-40.9877877277,-1.0,0.0,0.0,0.0,0.0,0.0,0.0,0.0,0.0
1492398276361248558,129,1492398276267901897,,-176.143767257,1.44204049263,-1.37483478057,0.0,-1.0,0.0,0.0,0.0,0.0,0.0,0.0,0.0,0.0,-0.0334296136125,0.0105326179875,-0.0285449212125,-1.0,0.0,0.0,0.0,0.0,0.0,0.0,0.0,0.0,-2.7636925491,1.0341559216,-40.9877877277,-1.0,0.0,0.0,0.0,0.0,0.0,0.0,0.0,0.0
1492398276361265092,130,1492398276287904024,,-176.143767257,1.44204049263,-1.37483478057,0.0,-1.0,0.0,0.0,0.0,0.0,0.0,0.0,0.0,0.0,-0.0358719598125,0.00793762515,-0.0257972817375,-1.0,0.0,0.0,0.0,0.0,0.0,0.0,0.0,0.0,-2.7636925491,1.0341559216,-40.9877877277,-1.0,0.0,0.0,0.0,0.0,0.0,0.0,0.0,0.0
1492398276377462510,131,1492398276308115005,,-176.143767257,1.44204049263,-1.39152665255,0.0,-1.0,0.0,0.0,0.0,0.0,0.0,0.0,0.0,0.0,-0.03358226025,0.010074678075,-0.02869756785,-1.0,0.0,0.0,0.0,0.0,0.0,0.0,0.0,0.0,-2.7636925491,1.0341559216,-40.9877877277,-1.0,0.0,0.0,0.0,0.0,0.0,0.0,0.0,0.0
1492398276397191944,132,1492398276327944993,,-176.167504294,4.62786256431,-1.39152665255,0.0,-1.0,0.0,0.0,0.0,0.0,0.0,0.0,0.0,0.0,-0.0352613732625,0.0109905579,-0.0267131615625,-1.0,0.0,0.0,0.0,0.0,0.0,0.0,0.0,0.0,-2.75477741184,3.32534619617,-40.9877877277,-1.0,0.0,0.0,0.0,0.0,0.0,0.0,0.0,0.0
1492398276420931978,133,1492398276347975969,,-176.167504294,4.62786256431,-1.39152665255,0.0,-1.0,0.0,0.0,0.0,0.0,0.0,0.0,0.0,0.0,-0.033887553525,0.012211731,-0.0315978539625,-1.0,0.0,0.0,0.0,0.0,0.0,0.0,0.0,0.0,-2.75477741184,3.32534619617,-40.9877877277,-1.0,0.0,0.0,0.0,0.0,0.0,0.0,0.0,0.0
1492398276437110955,134,1492398276367904901,,-176.167504294,4.62786256431,-1.39152665255,0.0,-1.0,0.0,0.0,0.0,0.0,0.0,0.0,0.0,0.0,-0.0331243203375,0.009464091525,-0.03480343335,-1.0,0.0,0.0,0.0,0.0,0.0,0.0,0.0,0.0,-2.75477741184,3.32534619617,-40.9877877277,-1.0,0.0,0.0,0.0,0.0,0.0,0.0,0.0,0.0
1492398276459188193,135,1492398276387923002,,-176.167504294,4.62786256431,-1.39152665255,0.0,-1.0,0.0,0.0,0.0,0.0,0.0,0.0,0.0,0.0,-0.0337349068875,0.011295851175,-0.0305293275,-1.0,0.0,0.0,0.0,0.0,0.0,0.0,0.0,0.0,-2.75477741184,3.32534619617,-40.9877877277,-1.0,0.0,0.0,0.0,0.0,0.0,0.0,0.0,0.0
1492398276477145900,136,1492398276407917976,,-176.080746904,4.59033002423,-1.60386277115,0.0,-1.0,0.0,0.0,0.0,0.0,0.0,0.0,0.0,0.0,-0.0322084405125,0.01282231755,-0.034498140075,-1.0,0.0,0.0,0.0,0.0,0.0,0.0,0.0,0.0,-2.81718337263,3.29860078441,-40.9877877277,-1.0,0.0,0.0,0.0,0.0,0.0,0.0,0.0,0.0
1492398276497123121,137,1492398276427908897,,-176.080746904,4.59033002423,-1.60386277115,0.0,-1.0,0.0,0.0,0.0,0.0,0.0,0.0,0.0,0.0,-0.0337349068875,0.0132802574625,-0.02991874095,-1.0,0.0,0.0,0.0,0.0,0.0,0.0,0.0,0.0,-2.81718337263,3.29860078441,-40.9877877277,-1.0,0.0,0.0,0.0,0.0,0.0,0.0,0.0,0.0
1492398276517211279,138,1492398276447962999,,-176.080746904,4.59033002423,-1.60386277115,0.0,-1.0,0.0,0.0,0.0,0.0,0.0,0.0,0.0,0.0,-0.0337349068875,0.0083955650625,-0.028392274575,-1.0,0.0,0.0,0.0,0.0,0.0,0.0,0.0,0.0,-2.81718337263,3.29860078441,-40.9877877277,-1.0,0.0,0.0,0.0,0.0,0.0,0.0,0.0,0.0
1492398276537291957,139,1492398276467938899,,-176.231251792,4.9739375092,-1.60386277115,0.0,-1.0,0.0,0.0,0.0,0.0,0.0,0.0,0.0,0.0,-0.035108726625,0.0123643776375,-0.032666380425,-1.0,0.0,0.0,0.0,0.0,0.0,0.0,0.0,0.0,-2.71020172557,3.57497003932,-40.9877877277,-1.0,0.0,0.0,0.0,0.0,0.0,0.0,0.0,0.0
1492398276557239151,140,1492398276487915039,,-176.231251792,4.9739375092,-1.60386277115,0.0,-1.0,0.0,0.0,0.0,0.0,0.0,0.0,0.0,0.0,-0.0349560799875,0.011295851175,-0.0280869813,-1.0,0.0,0.0,0.0,0.0,0.0,0.0,0.0,0.0,-2.71020172557,3.57497003932,-40.9877877277,-1.0,0.0,0.0,0.0,0.0,0.0,0.0,0.0,0.0
1492398276577423409,141,1492398276507940053,,-176.231251792,4.9739375092,-1.38035407344,0.0,-1.0,0.0,0.0,0.0,0.0,0.0,0.0,0.0,0.0,-0.03480343335,0.0108379112625,-0.0315978539625,-1.0,0.0,0.0,0.0,0.0,0.0,0.0,0.0,0.0,-2.71020172557,3.57497003932,-40.9877877277,-1.0,0.0,0.0,0.0,0.0,0.0,0.0,0.0,0.0
1492398276597119801,142,1492398276527903079,,-176.156285946,-6.65925077756,-1.38035407344,0.0,-1.0,0.0,0.0,0.0,0.0,0.0,0.0,0.0,0.0,-0.0349560799875,0.0102273247125,-0.0306819741375,-1.0,0.0,0.0,0.0,0.0,0.0,0.0,0.0,0.0,-2.77260768635,-4.79634384327,-40.9877877277,-1.0,0.0,0.0,0.0,0.0,0.0,0.0,0.0,0.0
1492398276617459438,143,1492398276548000097,,-176.156285946,-6.65925077756,-1.38035407344,0.0,-1.0,0.0,0.0,0.0,0.0,0.0,0.0,0.0,0.0,-0.034498140075,0.00915879825,-0.02747639475,-1.0,0.0,0.0,0.0,0.0,0.0,0.0,0.0,0.0,-2.77260768635,-4.79634384327,-40.9877877277,-1.0,0.0,0.0,0.0,0.0,0.0,0.0,0.0,0.0
1492398276636963554,144,1492398276567950010,,-176.156285946,-6.65925077756,-1.38035407344,0.0,-1.0,0.0,0.0,0.0,0.0,0.0,0.0,0.0,0.0,-0.03480343335,0.0096167381625,-0.0261025750125,-1.0,0.0,0.0,0.0,0.0,0.0,0.0,0.0,0.0,-2.77260768635,-4.79634384327,-40.9877877277,-1.0,0.0,0.0,0.0,0.0,0.0,0.0,0.0,0.0
1492398276664325798,145,1492398276588013887,,-176.122277528,5.34327781194,-1.38035407344,0.0,-1.0,0.0,0.0,0.0,0.0,0.0,0.0,0.0,0.0,-0.0325137337875,0.0109905579,-0.0303766808625,-1.0,0.0,0.0,0.0,0.0,0.0,0.0,0.0,0.0,-2.79043796086,3.84242415697,-40.9877877277,-1.0,0.0,0.0,0.0,0.0,0.0,0.0,0.0,0.0
1492398276677160068,146,1492398276607909917,,-176.122277528,5.34327781194,-1.38035407344,0.0,-1.0,0.0,0.0,0.0,0.0,0.0,0.0,0.0,0.0,-0.035108726625,0.01282231755,-0.02747639475,-1.0,0.0,0.0,0.0,0.0,0.0,0.0,0.0,0.0,-2.79043796086,3.84242415697,-40.9877877277,-1.0,0.0,0.0,0.0,0.0,0.0,0.0,0.0,0.0
1492398276697296634,147,1492398276627927064,,-176.122277528,5.34327781194,-1.38035407344,0.0,-1.0,0.0,0.0,0.0,0.0,0.0,0.0,0.0,0.0,-0.034498140075,0.011906437725,-0.02869756785,-1.0,0.0,0.0,0.0,0.0,0.0,0.0,0.0,0.0,-2.79043796086,3.84242415697,-40.9877877277,-1.0,0.0,0.0,0.0,0.0,0.0,0.0,0.0,0.0
1492398276717185586,148,1492398276647970914,,-176.122277528,5.34327781194,-1.38035407344,0.0,-1.0,0.0,0.0,0.0,0.0,0.0,0.0,0.0,0.0,-0.035719313175,0.01404349065,-0.02869756785,-1.0,0.0,0.0,0.0,0.0,0.0,0.0,0.0,0.0,-2.79043796086,3.84242415697,-40.9877877277,-1.0,0.0,0.0,0.0,0.0,0.0,0.0,0.0,0.0
1492398276737685377,149,1492398276667936086,,-176.204586383,-0.124348900005,-1.38035407344,0.0,-1.0,0.0,0.0,0.0,0.0,0.0,0.0,0.0,0.0,-0.0340402001625,0.0123643776375,-0.028392274575,-1.0,0.0,0.0,0.0,0.0,0.0,0.0,0.0,0.0,-2.71911686282,-0.0891513725515,-40.9877877277,-1.0,0.0,0.0,0.0,0.0,0.0,0.0,0.0,0.0
1492398276757280939,150,1492398276687889099,,-176.204586383,-0.124348900005,-1.38035407344,0.0,-1.0,0.0,0.0,0.0,0.0,0.0,0.0,0.0,0.0,-0.0346507867125,0.0090061516125,-0.027781688025,-1.0,0.0,0.0,0.0,0.0,0.0,0.0,0.0,0.0,-2.71911686282,-0.0891513725515,-40.9877877277,-1.0,0.0,0.0,0.0,0.0,0.0,0.0,0.0,0.0
1492398276777321916,151,1492398276707911014,,-176.204586383,-0.124348900005,-1.62333252509,0.0,-1.0,0.0,0.0,0.0,0.0,0.0,0.0,0.0,0.0,-0.0328190270625,0.0109905579,-0.0270184548375,-1.0,0.0,0.0,0.0,0.0,0.0,0.0,0.0,0.0,-2.71911686282,-0.0891513725515,-40.9877877277,-1.0,0.0,0.0,0.0,0.0,0.0,0.0,0.0,0.0
1492398276797080068,152,1492398276727880954,,-176.15515866,0.596819549601,-1.62333252509,0.0,-1.0,0.0,0.0,0.0,0.0,0.0,0.0,0.0,0.0,-0.034498140075,0.0120590843625,-0.0291555077625,-1.0,0.0,0.0,0.0,0.0,0.0,0.0,0.0,0.0,-2.75477741184,0.427926588247,-40.9877877277,-1.0,0.0,0.0,0.0,0.0,0.0,0.0,0.0,0.0
1492398276817436478,153,1492398276747868061,,-176.15515866,0.596819549601,-1.62333252509,0.0,-1.0,0.0,0.0,0.0,0.0,0.0,0.0,0.0,0.0,-0.0343454934375,0.01404349065,-0.030834620775,-1.0,0.0,0.0,0.0,0.0,0.0,0.0,0.0,0.0,-2.75477741184,0.427926588247,-40.9877877277,-1.0,0.0,0.0,0.0,0.0,0.0,0.0,0.0,0.0
1492398276837249623,154,1492398276767923116,,-176.15515866,0.596819549601,-1.62333252509,0.0,-1.0,0.0,0.0,0.0,0.0,0.0,0.0,0.0,0.0,-0.0346507867125,0.0134329041,-0.0305293275,-1.0,0.0,0.0,0.0,0.0,0.0,0.0,0.0,0.0,-2.75477741184,0.427926588247,-40.9877877277,-1.0,0.0,0.0,0.0,0.0,0.0,0.0,0.0,0.0
1492398276937732451,155,1492398276787885904,,-176.127604776,-4.08373983661,-1.62333252509,0.0,-1.0,0.0,0.0,0.0,0.0,0.0,0.0,0.0,0.0,-0.0337349068875,0.0120590843625,-0.030834620775,-1.0,0.0,0.0,0.0,0.0,0.0,0.0,0.0,0.0,-2.78152282361,-2.93308015694,-40.9877877277,-1.0,0.0,0.0,0.0,0.0,0.0,0.0,0.0,0.0
1492398276937778763,156,1492398276807981014,,-176.127604776,-4.08373983661,-1.3971810273,0.0,-1.0,0.0,0.0,0.0,0.0,0.0,0.0,0.0,0.0,-0.0354140199,0.0105326179875,-0.029002861125,-1.0,0.0,0.0,0.0,0.0,0.0,0.0,0.0,0.0,-2.78152282361,-2.93308015694,-40.9877877277,-1.0,0.0,0.0,0.0,0.0,0.0,0.0,0.0,0.0
1492398276937795492,157,1492398276827878952,,-176.127604776,-4.08373983661,-1.3971810273,0.0,-1.0,0.0,0.0,0.0,0.0,0.0,0.0,0.0,0.0,-0.0352613732625,0.014348783925,-0.030224034225,-1.0,0.0,0.0,0.0,0.0,0.0,0.0,0.0,0.0,-2.78152282361,-2.93308015694,-40.9877877277,-1.0,0.0,0.0,0.0,0.0,0.0,0.0,0.0,0.0
1492398276938001217,158,1492398276847918987,,-176.10801067,2.1251469071,-1.3971810273,0.0,-1.0,0.0,0.0,0.0,0.0,0.0,0.0,0.0,0.0,-0.0331243203375,0.013738197375,-0.0317505006,-1.0,0.0,0.0,0.0,0.0,0.0,0.0,0.0,0.0,-2.79043796086,1.52448847063,-40.9877877277,-1.0,0.0,0.0,0.0,0.0,0.0,0.0,0.0,0.0
1492398276949229183,159,1492398276867871046,,-176.10801067,2.1251469071,-1.3971810273,0.0,-1.0,0.0,0.0,0.0,0.0,0.0,0.0,0.0,0.0,-0.03358226025,0.010685264625,-0.0291555077625,-1.0,0.0,0.0,0.0,0.0,0.0,0.0,0.0,0.0,-2.79043796086,1.52448847063,-40.9877877277,-1.0,0.0,0.0,0.0,0.0,0.0,0.0,0.0,0.0
1492398276957494984,160,1492398276887955904,,-176.10801067,2.1251469071,-1.3971810273,0.0,-1.0,0.0,0.0,0.0,0.0,0.0,0.0,0.0,0.0,-0.034498140075,0.01037997135,-0.031445207325,-1.0,0.0,0.0,0.0,0.0,0.0,0.0,0.0,0.0,-2.79043796086,1.52448847063,-40.9877877277,-1.0,0.0,0.0,0.0,0.0,0.0,0.0,0.0,0.0
1492398276977503651,161,1492398276907927036,,-176.10801067,2.1251469071,-1.39152665255,0.0,-1.0,0.0,0.0,0.0,0.0,0.0,0.0,0.0,0.0,-0.0349560799875,0.0135855507375,-0.029002861125,-1.0,0.0,0.0,0.0,0.0,0.0,0.0,0.0,0.0,-2.79043796086,1.52448847063,-40.9877877277,-1.0,0.0,0.0,0.0,0.0,0.0,0.0,0.0,0.0
1492398276997176095,162,1492398276927875041,,-176.131518037,1.52899769521,-1.39152665255,0.0,-1.0,0.0,0.0,0.0,0.0,0.0,0.0,0.0,0.0,-0.0337349068875,0.010685264625,-0.0315978539625,-1.0,0.0,0.0,0.0,0.0,0.0,0.0,0.0,0.0,-2.77260768635,1.09656188238,-40.9877877277,-1.0,0.0,0.0,0.0,0.0,0.0,0.0,0.0,0.0
1492398277017290491,163,1492398276947868108,,-176.131518037,1.52899769521,-1.39152665255,0.0,-1.0,0.0,0.0,0.0,0.0,0.0,0.0,0.0,0.0,-0.0340402001625,0.0096167381625,-0.028392274575,-1.0,0.0,0.0,0.0,0.0,0.0,0.0,0.0,0.0,-2.77260768635,1.09656188238,-40.9877877277,-1.0,0.0,0.0,0.0,0.0,0.0,0.0,0.0,0.0
1492398277039744854,164,1492398276967916965,,-176.131518037,1.52899769521,-1.39152665255,0.0,-1.0,0.0,0.0,0.0,0.0,0.0,0.0,0.0,0.0,-0.0325137337875,0.0102273247125,-0.03113991405,-1.0,0.0,0.0,0.0,0.0,0.0,0.0,0.0,0.0,-2.77260768635,1.09656188238,-40.9877877277,-1.0,0.0,0.0,0.0,0.0,0.0,0.0,0.0,0.0
1492398277057437694,165,1492398276987935066,,-176.163523313,3.82404240661,-1.39152665255,0.0,-1.0,0.0,0.0,0.0,0.0,0.0,0.0,0.0,0.0,-0.0343454934375,0.0120590843625,-0.0309872674125,-1.0,0.0,0.0,0.0,0.0,0.0,0.0,0.0,0.0,-2.75477741184,2.74586227459,-40.9877877277,-1.0,0.0,0.0,0.0,0.0,0.0,0.0,0.0,0.0
1492398277077437711,166,1492398277007952928,,-176.163523313,3.82404240661,-1.40288153265,0.0,-1.0,0.0,0.0,0.0,0.0,0.0,0.0,0.0,0.0,-0.03358226025,0.01160114445,-0.030834620775,-1.0,0.0,0.0,0.0,0.0,0.0,0.0,0.0,0.0,-2.75477741184,2.74586227459,-40.9877877277,-1.0,0.0,0.0,0.0,0.0,0.0,0.0,0.0,0.0
1492398277097319113,167,1492398277027914047,,-176.163523313,3.82404240661,-1.40288153265,0.0,-1.0,0.0,0.0,0.0,0.0,0.0,0.0,0.0,0.0,-0.03480343335,0.012211731,-0.0331243203375,-1.0,0.0,0.0,0.0,0.0,0.0,0.0,0.0,0.0,-2.75477741184,2.74586227459,-40.9877877277,-1.0,0.0,0.0,0.0,0.0,0.0,0.0,0.0,0.0
1492398277117194712,168,1492398277047857046,,-176.167395992,0.261119983144,-1.40288153265,0.0,-1.0,0.0,0.0,0.0,0.0,0.0,0.0,0.0,0.0,-0.0346507867125,0.0114484978125,-0.0285449212125,-1.0,0.0,0.0,0.0,0.0,0.0,0.0,0.0,0.0,-2.74586227459,0.187217882358,-40.9877877277,-1.0,0.0,0.0,0.0,0.0,0.0,0.0,0.0,0.0
1492398277137589315,169,1492398277067899942,,-176.167395992,0.261119983144,-1.40288153265,0.0,-1.0,0.0,0.0,0.0,0.0,0.0,0.0,0.0,0.0,-0.0312925606875,0.012517024275,-0.02991874095,-1.0,0.0,0.0,0.0,0.0,0.0,0.0,0.0,0.0,-2.74586227459,0.187217882358,-40.9877877277,-1.0,0.0,0.0,0.0,0.0,0.0,0.0,0.0,0.0
1492398277159183265,170,1492398277088606119,,-176.167395992,0.261119983144,-1.40288153265,0.0,-1.0,0.0,0.0,0.0,0.0,0.0,0.0,0.0,0.0,-0.03480343335,0.01282231755,-0.031445207325,-1.0,0.0,0.0,0.0,0.0,0.0,0.0,0.0,0.0,-2.74586227459,0.187217882358,-40.9877877277,-1.0,0.0,0.0,0.0,0.0,0.0,0.0,0.0,0.0
1492398277179288344,171,1492398277108932018,,-176.079423954,4.34318043413,-1.40288153265,0.0,-1.0,0.0,0.0,0.0,0.0,0.0,0.0,0.0,0.0,-0.035719313175,0.0109905579,-0.0329716737,-1.0,0.0,0.0,0.0,0.0,0.0,0.0,0.0,0.0,-2.81718337263,3.1202980393,-40.9877877277,-1.0,0.0,0.0,0.0,0.0,0.0,0.0,0.0,0.0
1492398277199198589,172,1492398277129049062,,-176.079423954,4.34318043413,-1.40862873534,0.0,-1.0,0.0,0.0,0.0,0.0,0.0,0.0,0.0,0.0,-0.0328190270625,0.0117537910875,-0.03236108715,-1.0,0.0,0.0,0.0,0.0,0.0,0.0,0.0,0.0,-2.81718337263,3.1202980393,-40.9877877277,-1.0,0.0,0.0,0.0,0.0,0.0,0.0,0.0,0.0
1492398277218938008,173,1492398277148865938,,-176.079423954,4.34318043413,-1.40862873534,0.0,-1.0,0.0,0.0,0.0,0.0,0.0,0.0,0.0,0.0,-0.032666380425,0.0117537910875,-0.0337349068875,-1.0,0.0,0.0,0.0,0.0,0.0,0.0,0.0,0.0,-2.81718337263,3.1202980393,-40.9877877277,-1.0,0.0,0.0,0.0,0.0,0.0,0.0,0.0,0.0
1492398277239925301,174,1492398277168530941,,-176.079423954,4.34318043413,-1.40862873534,0.0,-1.0,0.0,0.0,0.0,0.0,0.0,0.0,0.0,0.0,-0.0343454934375,0.012517024275,-0.0325137337875,-1.0,0.0,0.0,0.0,0.0,0.0,0.0,0.0,0.0,-2.81718337263,3.1202980393,-40.9877877277,-1.0,0.0,0.0,0.0,0.0,0.0,0.0,0.0,0.0
1492398277260444788,175,1492398277188379049,,-176.173880129,-3.34105374063,-1.40862873534,0.0,-1.0,0.0,0.0,0.0,0.0,0.0,0.0,0.0,0.0,-0.0358719598125,0.012517024275,-0.0328190270625,-1.0,0.0,0.0,0.0,0.0,0.0,0.0,0.0,0.0,-2.74586227459,-2.39817192164,-40.9877877277,-1.0,0.0,0.0,0.0,0.0,0.0,0.0,0.0,0.0
1492398277278611172,176,1492398277208062887,,-176.173880129,-3.34105374063,-1.40862873534,0.0,-1.0,0.0,0.0,0.0,0.0,0.0,0.0,0.0,0.0,-0.0358719598125,0.0126696709125,-0.0291555077625,-1.0,0.0,0.0,0.0,0.0,0.0,0.0,0.0,0.0,-2.74586227459,-2.39817192164,-40.9877877277,-1.0,0.0,0.0,0.0,0.0,0.0,0.0,0.0,0.0
1492398277296880865,177,1492398277228028059,,-176.173880129,-3.34105374063,-1.60386277115,0.0,-1.0,0.0,0.0,0.0,0.0,0.0,0.0,0.0,0.0,-0.03602460645,0.0114484978125,-0.0279343346625,-1.0,0.0,0.0,0.0,0.0,0.0,0.0,0.0,0.0,-2.74586227459,-2.39817192164,-40.9877877277,-1.0,0.0,0.0,0.0,0.0,0.0,0.0,0.0,0.0
1492398277317356205,178,1492398277248025894,,-176.105341069,0.149201205572,-1.60386277115,0.0,-1.0,0.0,0.0,0.0,0.0,0.0,0.0,0.0,0.0,-0.0349560799875,0.010074678075,-0.032666380425,-1.0,0.0,0.0,0.0,0.0,0.0,0.0,0.0,0.0,-2.79043796086,0.106981647062,-40.9877877277,-1.0,0.0,0.0,0.0,0.0,0.0,0.0,0.0,0.0
1492398277337044707,179,1492398277267923116,,-176.105341069,0.149201205572,-1.60386277115,0.0,-1.0,0.0,0.0,0.0,0.0,0.0,0.0,0.0,0.0,-0.0364825463625,0.01160114445,-0.0319031472375,-1.0,0.0,0.0,0.0,0.0,0.0,0.0,0.0,0.0,-2.79043796086,0.106981647062,-40.9877877277,-1.0,0.0,0.0,0.0,0.0,0.0,0.0,0.0,0.0
1492398277357366522,180,1492398277288006067,,-176.105341069,0.149201205572,-1.60386277115,0.0,-1.0,0.0,0.0,0.0,0.0,0.0,0.0,0.0,0.0,-0.0343454934375,0.0102273247125,-0.027171101475,-1.0,0.0,0.0,0.0,0.0,0.0,0.0,0.0,0.0,-2.79043796086,0.106981647062,-40.9877877277,-1.0,0.0,0.0,0.0,0.0,0.0,0.0,0.0,0.0
1492398277377329308,181,1492398277308015108,,-176.149808961,-3.51441044432,-1.60386277115,0.0,-1.0,0.0,0.0,0.0,0.0,0.0,0.0,0.0,0.0,-0.033887553525,0.01037997135,-0.0297660943125,-1.0,0.0,0.0,0.0,0.0,0.0,0.0,0.0,0.0,-2.7636925491,-2.52298384321,-40.9877877277,-1.0,0.0,0.0,0.0,0.0,0.0,0.0,0.0,0.0
1492398277397103908,182,1492398277327888011,,-176.149808961,-3.51441044432,-1.38591785081,0.0,-1.0,0.0,0.0,0.0,0.0,0.0,0.0,0.0,0.0,-0.0340402001625,0.0123643776375,-0.0279343346625,-1.0,0.0,0.0,0.0,0.0,0.0,0.0,0.0,0.0,-2.7636925491,-2.52298384321,-40.9877877277,-1.0,0.0,0.0,0.0,0.0,0.0,0.0,0.0,0.0
1492398277417798951,183,1492398277347940921,,-176.149808961,-3.51441044432,-1.38591785081,0.0,-1.0,0.0,0.0,0.0,0.0,0.0,0.0,0.0,0.0,-0.035108726625,0.011295851175,-0.029613447675,-1.0,0.0,0.0,0.0,0.0,0.0,0.0,0.0,0.0,-2.7636925491,-2.52298384321,-40.9877877277,-1.0,0.0,0.0,0.0,0.0,0.0,0.0,0.0,0.0
1492398277437402617,184,1492398277367897987,,-176.205402152,1.19357862639,-1.38591785081,0.0,-1.0,0.0,0.0,0.0,0.0,0.0,0.0,0.0,0.0,-0.0334296136125,0.01282231755,-0.0328190270625,-1.0,0.0,0.0,0.0,0.0,0.0,0.0,0.0,0.0,-2.71911686282,0.855853176494,-40.9877877277,-1.0,0.0,0.0,0.0,0.0,0.0,0.0,0.0,0.0
1492398277457360300,185,1492398277387933015,,-176.205402152,1.19357862639,-1.38591785081,0.0,-1.0,0.0,0.0,0.0,0.0,0.0,0.0,0.0,0.0,-0.0337349068875,0.0148067238375,-0.0305293275,-1.0,0.0,0.0,0.0,0.0,0.0,0.0,0.0,0.0,-2.71911686282,0.855853176494,-40.9877877277,-1.0,0.0,0.0,0.0,0.0,0.0,0.0,0.0,0.0
1492398277476980885,186,1492398277407907009,,-176.205402152,1.19357862639,-1.38591785081,0.0,-1.0,0.0,0.0,0.0,0.0,0.0,0.0,0.0,0.0,-0.0349560799875,0.01037997135,-0.0276290413875,-1.0,0.0,0.0,0.0,0.0,0.0,0.0,0.0,0.0,-2.71911686282,0.855853176494,-40.9877877277,-1.0,0.0,0.0,0.0,0.0,0.0,0.0,0.0,0.0
1492398277497286488,187,1492398277427975893,,-176.205402152,1.19357862639,-1.61679031067,0.0,-1.0,0.0,0.0,0.0,0.0,0.0,0.0,0.0,0.0,-0.0349560799875,0.0105326179875,-0.0306819741375,-1.0,0.0,0.0,0.0,0.0,0.0,0.0,0.0,0.0,-2.71911686282,0.855853176494,-40.9877877277,-1.0,0.0,0.0,0.0,0.0,0.0,0.0,0.0,0.0
1492398277516953805,188,1492398277447962999,,-176.155073884,0.460055155157,-1.61679031067,0.0,-1.0,0.0,0.0,0.0,0.0,0.0,0.0,0.0,0.0,-0.03480343335,0.0132802574625,-0.029002861125,-1.0,0.0,0.0,0.0,0.0,0.0,0.0,0.0,0.0,-2.75477741184,0.329860078441,-40.9877877277,-1.0,0.0,0.0,0.0,0.0,0.0,0.0,0.0,0.0
1492398277537390441,189,1492398277467977046,,-176.155073884,0.460055155157,-1.61679031067,0.0,-1.0,0.0,0.0,0.0,0.0,0.0,0.0,0.0,0.0,-0.0325137337875,0.0114484978125,-0.031445207325,-1.0,0.0,0.0,0.0,0.0,0.0,0.0,0.0,0.0,-2.75477741184,0.329860078441,-40.9877877277,-1.0,0.0,0.0,0.0,0.0,0.0,0.0,0.0,0.0
1492398277557518806,190,1492398277487916946,,-176.155073884,0.460055155157,-1.61679031067,0.0,-1.0,0.0,0.0,0.0,0.0,0.0,0.0,0.0,0.0,-0.0343454934375,0.010685264625,-0.02991874095,-1.0,0.0,0.0,0.0,0.0,0.0,0.0,0.0,0.0,-2.75477741184,0.329860078441,-40.9877877277,-1.0,0.0,0.0,0.0,0.0,0.0,0.0,0.0,0.0
1492398277577348733,191,1492398277507927894,,-176.15636585,1.55389270463,-1.61679031067,0.0,-1.0,0.0,0.0,0.0,0.0,0.0,0.0,0.0,0.0,-0.0340402001625,0.0096167381625,-0.03113991405,-1.0,0.0,0.0,0.0,0.0,0.0,0.0,0.0,0.0,-2.75477741184,1.11439215689,-40.9877877277,-1.0,0.0,0.0,0.0,0.0,0.0,0.0,0.0,0.0
1492398277597274164,192,1492398277527904987,,-176.15636585,1.55389270463,-1.15036306133,0.0,-1.0,0.0,0.0,0.0,0.0,0.0,0.0,0.0,0.0,-0.032055793875,0.010685264625,-0.0334296136125,-1.0,0.0,0.0,0.0,0.0,0.0,0.0,0.0,0.0,-2.75477741184,1.11439215689,-40.9877877277,-1.0,0.0,0.0,0.0,0.0,0.0,0.0,0.0,0.0
1492398277617411327,193,1492398277547878980,,-176.15636585,1.55389270463,-1.15036306133,0.0,-1.0,0.0,0.0,0.0,0.0,0.0,0.0,0.0,0.0,-0.0355666665375,0.0099220314375,-0.0282396279375,-1.0,0.0,0.0,0.0,0.0,0.0,0.0,0.0,0.0,-2.75477741184,1.11439215689,-40.9877877277,-1.0,0.0,0.0,0.0,0.0,0.0,0.0,0.0,0.0
1492398277637339375,194,1492398277567938089,,-176.122525015,2.84496426397,-1.15036306133,0.0,-1.0,0.0,0.0,0.0,0.0,0.0,0.0,0.0,0.0,-0.0355666665375,0.0129749641875,-0.0293081544,-1.0,0.0,0.0,0.0,0.0,0.0,0.0,0.0,0.0,-2.78152282361,2.04156643143,-40.9877877277,-1.0,0.0,0.0,0.0,0.0,0.0,0.0,0.0,0.0
1492398277657366576,195,1492398277587913990,,-176.122525015,2.84496426397,-1.15036306133,0.0,-1.0,0.0,0.0,0.0,0.0,0.0,0.0,0.0,0.0,-0.034498140075,0.0123643776375,-0.0305293275,-1.0,0.0,0.0,0.0,0.0,0.0,0.0,0.0,0.0,-2.78152282361,2.04156643143,-40.9877877277,-1.0,0.0,0.0,0.0,0.0,0.0,0.0,0.0,0.0
1492398277676970384,196,1492398277607913017,,-176.122525015,2.84496426397,-1.15036306133,0.0,-1.0,0.0,0.0,0.0,0.0,0.0,0.0,0.0,0.0,-0.035108726625,0.0120590843625,-0.0294608010375,-1.0,0.0,0.0,0.0,0.0,0.0,0.0,0.0,0.0,-2.78152282361,2.04156643143,-40.9877877277,-1.0,0.0,0.0,0.0,0.0,0.0,0.0,0.0,0.0
1492398277697422447,197,1492398277627964019,,-176.154965074,-0.161644045492,-1.14576283818,0.0,-1.0,0.0,0.0,0.0,0.0,0.0,0.0,0.0,0.0,-0.03236108715,0.011906437725,-0.0315978539625,-1.0,0.0,0.0,0.0,0.0,0.0,0.0,0.0,0.0,-2.75477741184,-0.115896784317,-40.9877877277,-1.0,0.0,0.0,0.0,0.0,0.0,0.0,0.0,0.0
1492398277717074439,198,1492398277647917032,,-176.154965074,-0.161644045492,-1.14576283818,0.0,-1.0,0.0,0.0,0.0,0.0,0.0,0.0,0.0,0.0,-0.0337349068875,0.01282231755,-0.0315978539625,-1.0,0.0,0.0,0.0,0.0,0.0,0.0,0.0,0.0,-2.75477741184,-0.115896784317,-40.9877877277,-1.0,0.0,0.0,0.0,0.0,0.0,0.0,0.0,0.0
1492398277737507240,199,1492398277667957067,,-176.154965074,-0.161644045492,-1.14576283818,0.0,-1.0,0.0,0.0,0.0,0.0,0.0,0.0,0.0,0.0,-0.03358226025,0.0126696709125,-0.029002861125,-1.0,0.0,0.0,0.0,0.0,0.0,0.0,0.0,0.0,-2.75477741184,-0.115896784317,-40.9877877277,-1.0,0.0,0.0,0.0,0.0,0.0,0.0,0.0,0.0
1492398277757316857,200,1492398277687886953,,-176.154965074,-0.161644045492,-1.14576283818,0.0,-1.0,0.0,0.0,0.0,0.0,0.0,0.0,0.0,0.0,-0.0337349068875,0.0114484978125,-0.0279343346625,-1.0,0.0,0.0,0.0,0.0,0.0,0.0,0.0,0.0,-2.75477741184,-0.115896784317,-40.9877877277,-1.0,0.0,0.0,0.0,0.0,0.0,0.0,0.0,0.0
1492398277777399525,201,1492398277707917928,,-176.117799514,-0.335704570069,-1.14576283818,0.0,-1.0,0.0,0.0,0.0,0.0,0.0,0.0,0.0,0.0,-0.0334296136125,0.0108379112625,-0.030834620775,-1.0,0.0,0.0,0.0,0.0,0.0,0.0,0.0,0.0,-2.78152282361,-0.240708705889,-40.9877877277,-1.0,0.0,0.0,0.0,0.0,0.0,0.0,0.0,0.0
1492398277798969454,202,1492398277727895975,,-176.117799514,-0.335704570069,-1.62333252509,0.0,-1.0,0.0,0.0,0.0,0.0,0.0,0.0,0.0,0.0,-0.033887553525,0.011295851175,-0.029613447675,-1.0,0.0,0.0,0.0,0.0,0.0,0.0,0.0,0.0,-2.78152282361,-0.240708705889,-40.9877877277,-1.0,0.0,0.0,0.0,0.0,0.0,0.0,0.0,0.0
1492398277818228974,203,1492398277747864961,,-176.117799514,-0.335704570069,-1.62333252509,0.0,-1.0,0.0,0.0,0.0,0.0,0.0,0.0,0.0,0.0,-0.03602460645,0.01037997135,-0.028392274575,-1.0,0.0,0.0,0.0,0.0,0.0,0.0,0.0,0.0,-2.78152282361,-0.240708705889,-40.9877877277,-1.0,0.0,0.0,0.0,0.0,0.0,0.0,0.0,0.0
1492398277837338513,204,1492398277768033027,,-176.159095842,-2.65900614903,-1.62333252509,0.0,-1.0,0.0,0.0,0.0,0.0,0.0,0.0,0.0,0.0,-0.035108726625,0.012517024275,-0.0306819741375,-1.0,0.0,0.0,0.0,0.0,0.0,0.0,0.0,0.0,-2.75477741184,-1.9078393726,-40.9877877277,-1.0,0.0,0.0,0.0,0.0,0.0,0.0,0.0,0.0
1492398277859046035,205,1492398277787913084,,-176.159095842,-2.65900614903,-1.62333252509,0.0,-1.0,0.0,0.0,0.0,0.0,0.0,0.0,0.0,0.0,-0.03602460645,0.0117537910875,-0.0309872674125,-1.0,0.0,0.0,0.0,0.0,0.0,0.0,0.0,0.0,-2.75477741184,-1.9078393726,-40.9877877277,-1.0,0.0,0.0,0.0,0.0,0.0,0.0,0.0,0.0
1492398277879241302,206,1492398277807938098,,-176.159095842,-2.65900614903,-1.62333252509,0.0,-1.0,0.0,0.0,0.0,0.0,0.0,0.0,0.0,0.0,-0.0343454934375,0.013127610825,-0.0329716737,-1.0,0.0,0.0,0.0,0.0,0.0,0.0,0.0,0.0,-2.75477741184,-1.9078393726,-40.9877877277,-1.0,0.0,0.0,0.0,0.0,0.0,0.0,0.0,0.0
1492398277897352924,207,1492398277827924966,,-176.192675043,0.932522445695,-1.62333252509,0.0,-1.0,0.0,0.0,0.0,0.0,0.0,0.0,0.0,0.0,-0.035108726625,0.0109905579,-0.029613447675,-1.0,0.0,0.0,0.0,0.0,0.0,0.0,0.0,0.0,-2.72803200008,0.668635294136,-40.9877877277,-1.0,0.0,0.0,0.0,0.0,0.0,0.0,0.0,0.0
1492398277916866744,208,1492398277847961902,,-176.192675043,0.932522445695,-1.62333252509,0.0,-1.0,0.0,0.0,0.0,0.0,0.0,0.0,0.0,0.0,-0.03358226025,0.010685264625,-0.027781688025,-1.0,0.0,0.0,0.0,0.0,0.0,0.0,0.0,0.0,-2.72803200008,0.668635294136,-40.9877877277,-1.0,0.0,0.0,0.0,0.0,0.0,0.0,0.0,0.0
1492398277937496468,209,1492398277867949008,,-176.192675043,0.932522445695,-1.62333252509,0.0,-1.0,0.0,0.0,0.0,0.0,0.0,0.0,0.0,0.0,-0.0337349068875,0.0099220314375,-0.0306819741375,-1.0,0.0,0.0,0.0,0.0,0.0,0.0,0.0,0.0,-2.72803200008,0.668635294136,-40.9877877277,-1.0,0.0,0.0,0.0,0.0,0.0,0.0,0.0,0.0
1492398277957615818,210,1492398277887902021,,-176.131202112,1.34260754877,-1.62333252509,0.0,-1.0,0.0,0.0,0.0,0.0,0.0,0.0,0.0,0.0,-0.035719313175,0.01160114445,-0.0322084405125,-1.0,0.0,0.0,0.0,0.0,0.0,0.0,0.0,0.0,-2.77260768635,0.962834823556,-40.9877877277,-1.0,0.0,0.0,0.0,0.0,0.0,0.0,0.0,0.0
1492398277977582902,211,1492398277908026933,,-176.131202112,1.34260754877,-1.62333252509,0.0,-1.0,0.0,0.0,0.0,0.0,0.0,0.0,0.0,0.0,-0.0373984261875,0.0123643776375,-0.0315978539625,-1.0,0.0,0.0,0.0,0.0,0.0,0.0,0.0,0.0,-2.77260768635,0.962834823556,-40.9877877277,-1.0,0.0,0.0,0.0,0.0,0.0,0.0,0.0,0.0
1492398277999251684,212,1492398277928117036,,-176.131202112,1.34260754877,-1.84019525639,0.0,-1.0,0.0,0.0,0.0,0.0,0.0,0.0,0.0,0.0,-0.0346507867125,0.01160114445,-0.0294608010375,-1.0,0.0,0.0,0.0,0.0,0.0,0.0,0.0,0.0,-2.77260768635,0.962834823556,-40.9877877277,-1.0,0.0,0.0,0.0,0.0,0.0,0.0,0.0,0.0
1492398278017504231,213,1492398277948132038,,-176.131202112,1.34260754877,-1.84019525639,0.0,-1.0,0.0,0.0,0.0,0.0,0.0,0.0,0.0,0.0,-0.033887553525,0.010074678075,-0.0328190270625,-1.0,0.0,0.0,0.0,0.0,0.0,0.0,0.0,0.0,-2.77260768635,0.962834823556,-40.9877877277,-1.0,0.0,0.0,0.0,0.0,0.0,0.0,0.0,0.0
1492398278037323263,214,1492398277967962026,,-176.134507684,2.72096082184,-1.84019525639,0.0,-1.0,0.0,0.0,0.0,0.0,0.0,0.0,0.0,0.0,-0.035108726625,0.0129749641875,-0.030224034225,-1.0,0.0,0.0,0.0,0.0,0.0,0.0,0.0,0.0,-2.77260768635,1.95241505888,-40.9877877277,-1.0,0.0,0.0,0.0,0.0,0.0,0.0,0.0,0.0
1492398278060466362,215,1492398277987910032,,-176.134507684,2.72096082184,-1.84019525639,0.0,-1.0,0.0,0.0,0.0,0.0,0.0,0.0,0.0,0.0,-0.0334296136125,0.0129749641875,-0.02747639475,-1.0,0.0,0.0,0.0,0.0,0.0,0.0,0.0,0.0,-2.77260768635,1.95241505888,-40.9877877277,-1.0,0.0,0.0,0.0,0.0,0.0,0.0,0.0,0.0
1492398278079505709,216,1492398278007904052,,-176.134507684,2.72096082184,-1.84019525639,0.0,-1.0,0.0,0.0,0.0,0.0,0.0,0.0,0.0,0.0,-0.0328190270625,0.0132802574625,-0.0294608010375,-1.0,0.0,0.0,0.0,0.0,0.0,0.0,0.0,0.0,-2.77260768635,1.95241505888,-40.9877877277,-1.0,0.0,0.0,0.0,0.0,0.0,0.0,0.0,0.0
1492398278097801392,217,1492398278027931928,,-176.155298277,0.77087328351,-1.84019525639,0.0,-1.0,0.0,0.0,0.0,0.0,0.0,0.0,0.0,0.0,-0.034498140075,0.0134329041,-0.0319031472375,-1.0,0.0,0.0,0.0,0.0,0.0,0.0,0.0,0.0,-2.75477741184,0.552738509819,-40.9877877277,-1.0,0.0,0.0,0.0,0.0,0.0,0.0,0.0,0.0
1492398278117252160,218,1492398278047956943,,-176.155298277,0.77087328351,-1.38591785081,0.0,-1.0,0.0,0.0,0.0,0.0,0.0,0.0,0.0,0.0,-0.0331243203375,0.013127610825,-0.02991874095,-1.0,0.0,0.0,0.0,0.0,0.0,0.0,0.0,0.0,-2.75477741184,0.552738509819,-40.9877877277,-1.0,0.0,0.0,0.0,0.0,0.0,0.0,0.0,0.0
1492398278137591210,219,1492398278067884922,,-176.155298277,0.77087328351,-1.38591785081,0.0,-1.0,0.0,0.0,0.0,0.0,0.0,0.0,0.0,0.0,-0.0337349068875,0.0123643776375,-0.0319031472375,-1.0,0.0,0.0,0.0,0.0,0.0,0.0,0.0,0.0,-2.75477741184,0.552738509819,-40.9877877277,-1.0,0.0,0.0,0.0,0.0,0.0,0.0,0.0,0.0
1492398278159251848,220,1492398278088999032,,-176.220620783,-2.51028031492,-1.38591785081,0.0,-1.0,0.0,0.0,0.0,0.0,0.0,0.0,0.0,0.0,-0.0349560799875,0.0123643776375,-0.031445207325,-1.0,0.0,0.0,0.0,0.0,0.0,0.0,0.0,0.0,-2.71020172557,-1.80085772554,-40.9877877277,-1.0,0.0,0.0,0.0,0.0,0.0,0.0,0.0,0.0
1492398278178121773,221,1492398278108797073,,-176.220620783,-2.51028031492,-1.38591785081,0.0,-1.0,0.0,0.0,0.0,0.0,0.0,0.0,0.0,0.0,-0.03236108715,0.012211731,-0.03236108715,-1.0,0.0,0.0,0.0,0.0,0.0,0.0,0.0,0.0,-2.71020172557,-1.80085772554,-40.9877877277,-1.0,0.0,0.0,0.0,0.0,0.0,0.0,0.0,0.0
1492398278200163694,222,1492398278128763914,,-176.220620783,-2.51028031492,-1.38591785081,0.0,-1.0,0.0,0.0,0.0,0.0,0.0,0.0,0.0,0.0,-0.0341928468,0.0129749641875,-0.0341928468,-1.0,0.0,0.0,0.0,0.0,0.0,0.0,0.0,0.0,-2.71020172557,-1.80085772554,-40.9877877277,-1.0,0.0,0.0,0.0,0.0,0.0,0.0,0.0,0.0
1492398278217859766,223,1492398278148566007,,-176.156127692,1.41720860279,-1.38591785081,0.0,-1.0,0.0,0.0,0.0,0.0,0.0,0.0,0.0,0.0,-0.035719313175,0.009464091525,-0.0267131615625,-1.0,0.0,0.0,0.0,0.0,0.0,0.0,0.0,0.0,-2.75477741184,1.01632564709,-40.9877877277,-1.0,0.0,0.0,0.0,0.0,0.0,0.0,0.0,0.0
1492398278237147141,224,1492398278168098926,,-176.156127692,1.41720860279,-1.38591785081,0.0,-1.0,0.0,0.0,0.0,0.0,0.0,0.0,0.0,0.0,-0.0334296136125,0.010685264625,-0.02869756785,-1.0,0.0,0.0,0.0,0.0,0.0,0.0,0.0,0.0,-2.75477741184,1.01632564709,-40.9877877277,-1.0,0.0,0.0,0.0,0.0,0.0,0.0,0.0,0.0
1492398278256867842,225,1492398278187968015,,-176.156127692,1.41720860279,-1.38591785081,0.0,-1.0,0.0,0.0,0.0,0.0,0.0,0.0,0.0,0.0,-0.033276966975,0.011295851175,-0.0300713875875,-1.0,0.0,0.0,0.0,0.0,0.0,0.0,0.0,0.0,-2.75477741184,1.01632564709,-40.9877877277,-1.0,0.0,0.0,0.0,0.0,0.0,0.0,0.0,0.0
1492398278277973809,226,1492398278207941055,,-176.156127692,1.41720860279,-1.38591785081,0.0,-1.0,0.0,0.0,0.0,0.0,0.0,0.0,0.0,0.0,-0.0337349068875,0.0111432045375,-0.0294608010375,-1.0,0.0,0.0,0.0,0.0,0.0,0.0,0.0,0.0,-2.75477741184,1.01632564709,-40.9877877277,-1.0,0.0,0.0,0.0,0.0,0.0,0.0,0.0,0.0
1492398278296975945,227,1492398278227905035,,-176.145520593,2.24939926475,-1.38591785081,0.0,-1.0,0.0,0.0,0.0,0.0,0.0,0.0,0.0,0.0,-0.0334296136125,0.012517024275,-0.0352613732625,-1.0,0.0,0.0,0.0,0.0,0.0,0.0,0.0,0.0,-2.7636925491,1.61363984318,-40.9877877277,-1.0,0.0,0.0,0.0,0.0,0.0,0.0,0.0,0.0
1492398278316668165,228,1492398278247920989,,-176.145520593,2.24939926475,-1.15500036804,0.0,-1.0,0.0,0.0,0.0,0.0,0.0,0.0,0.0,0.0,-0.0341928468,0.011906437725,-0.0282396279375,-1.0,0.0,0.0,0.0,0.0,0.0,0.0,0.0,0.0,-2.7636925491,1.61363984318,-40.9877877277,-1.0,0.0,0.0,0.0,0.0,0.0,0.0,0.0,0.0
1492398278336794909,229,1492398278268043994,,-176.145520593,2.24939926475,-1.15500036804,0.0,-1.0,0.0,0.0,0.0,0.0,0.0,0.0,0.0,0.0,-0.03358226025,0.0105326179875,-0.0300713875875,-1.0,0.0,0.0,0.0,0.0,0.0,0.0,0.0,0.0,-2.7636925491,1.61363984318,-40.9877877277,-1.0,0.0,0.0,0.0,0.0,0.0,0.0,0.0,0.0
1492398278356734143,230,1492398278287895917,,-176.142552825,0.124339895734,-1.15500036804,0.0,-1.0,0.0,0.0,0.0,0.0,0.0,0.0,0.0,0.0,-0.0331243203375,0.010685264625,-0.0315978539625,-1.0,0.0,0.0,0.0,0.0,0.0,0.0,0.0,0.0,-2.7636925491,0.0891513725515,-40.9877877277,-1.0,0.0,0.0,0.0,0.0,0.0,0.0,0.0,0.0
1492398278388031662,231,1492398278307914018,,-176.142552825,0.124339895734,-1.15500036804,0.0,-1.0,0.0,0.0,0.0,0.0,0.0,0.0,0.0,0.0,-0.03358226025,0.010685264625,-0.02869756785,-1.0,0.0,0.0,0.0,0.0,0.0,0.0,0.0,0.0,-2.7636925491,0.0891513725515,-40.9877877277,-1.0,0.0,0.0,0.0,0.0,0.0,0.0,0.0,0.0
1492398278403910301,232,1492398278327891111,,-176.142552825,0.124339895734,-1.15500036804,0.0,-1.0,0.0,0.0,0.0,0.0,0.0,0.0,0.0,0.0,-0.0325137337875,0.012517024275,-0.0254919884625,-1.0,0.0,0.0,0.0,0.0,0.0,0.0,0.0,0.0,-2.7636925491,0.0891513725515,-40.9877877277,-1.0,0.0,0.0,0.0,0.0,0.0,0.0,0.0,0.0
1492398278416944681,233,1492398278347982883,,-176.128397073,4.24452483575,-1.62333252509,0.0,-1.0,0.0,0.0,0.0,0.0,0.0,0.0,0.0,0.0,-0.0349560799875,0.01037997135,-0.0312925606875,-1.0,0.0,0.0,0.0,0.0,0.0,0.0,0.0,0.0,-2.78152282361,3.04897694126,-40.9877877277,-1.0,0.0,0.0,0.0,0.0,0.0,0.0,0.0,0.0
1492398278437747689,234,1492398278367899894,,-176.128397073,4.24452483575,-1.62333252509,0.0,-1.0,0.0,0.0,0.0,0.0,0.0,0.0,0.0,0.0,-0.0325137337875,0.0134329041,-0.0319031472375,-1.0,0.0,0.0,0.0,0.0,0.0,0.0,0.0,0.0,-2.78152282361,3.04897694126,-40.9877877277,-1.0,0.0,0.0,0.0,0.0,0.0,0.0,0.0,0.0
1492398278456975691,235,1492398278387900114,,-176.128397073,4.24452483575,-1.62333252509,0.0,-1.0,0.0,0.0,0.0,0.0,0.0,0.0,0.0,0.0,-0.032055793875,0.011906437725,-0.02991874095,-1.0,0.0,0.0,0.0,0.0,0.0,0.0,0.0,0.0,-2.78152282361,3.04897694126,-40.9877877277,-1.0,0.0,0.0,0.0,0.0,0.0,0.0,0.0,0.0
1492398278476683196,236,1492398278407944917,,-176.128397073,4.24452483575,-1.62333252509,0.0,-1.0,0.0,0.0,0.0,0.0,0.0,0.0,0.0,0.0,-0.036329899725,0.0105326179875,-0.0268658082,-1.0,0.0,0.0,0.0,0.0,0.0,0.0,0.0,0.0,-2.78152282361,3.04897694126,-40.9877877277,-1.0,0.0,0.0,0.0,0.0,0.0,0.0,0.0,0.0
1492398278496756758,237,1492398278427898883,,-176.205482517,-6.64736732942,-1.62333252509,0.0,-1.0,0.0,0.0,0.0,0.0,0.0,0.0,0.0,0.0,-0.0346507867125,0.0146540772,-0.02991874095,-1.0,0.0,0.0,0.0,0.0,0.0,0.0,0.0,0.0,-2.73694713733,-4.78742870602,-40.9877877277,-1.0,0.0,0.0,0.0,0.0,0.0,0.0,0.0,0.0
1492398278516939619,238,1492398278447940111,,-176.205482517,-6.64736732942,-1.15036306133,0.0,-1.0,0.0,0.0,0.0,0.0,0.0,0.0,0.0,0.0,-0.0343454934375,0.012517024275,-0.032055793875,-1.0,0.0,0.0,0.0,0.0,0.0,0.0,0.0,0.0,-2.73694713733,-4.78742870602,-40.9877877277,-1.0,0.0,0.0,0.0,0.0,0.0,0.0,0.0,0.0
1492398278536828980,239,1492398278467910051,,-176.205482517,-6.64736732942,-1.15036306133,0.0,-1.0,0.0,0.0,0.0,0.0,0.0,0.0,0.0,0.0,-0.0329716737,0.0120590843625,-0.0329716737,-1.0,0.0,0.0,0.0,0.0,0.0,0.0,0.0,0.0,-2.73694713733,-4.78742870602,-40.9877877277,-1.0,0.0,0.0,0.0,0.0,0.0,0.0,0.0,0.0
1492398278556718136,240,1492398278487896919,,-176.154975955,0.211380276665,-1.15036306133,0.0,-1.0,0.0,0.0,0.0,0.0,0.0,0.0,0.0,0.0,-0.03480343335,0.01282231755,-0.0319031472375,-1.0,0.0,0.0,0.0,0.0,0.0,0.0,0.0,0.0,-2.75477741184,0.151557333338,-40.9877877277,-1.0,0.0,0.0,0.0,0.0,0.0,0.0,0.0,0.0
1492398278579430112,241,1492398278507913112,,-176.154975955,0.211380276665,-1.15036306133,0.0,-1.0,0.0,0.0,0.0,0.0,0.0,0.0,0.0,0.0,-0.0334296136125,0.0120590843625,-0.0261025750125,-1.0,0.0,0.0,0.0,0.0,0.0,0.0,0.0,0.0,-2.75477741184,0.151557333338,-40.9877877277,-1.0,0.0,0.0,0.0,0.0,0.0,0.0,0.0,0.0
1492398278596702247,242,1492398278527892112,,-176.154975955,0.211380276665,-1.15036306133,0.0,-1.0,0.0,0.0,0.0,0.0,0.0,0.0,0.0,0.0,-0.0325137337875,0.0123643776375,-0.0291555077625,-1.0,0.0,0.0,0.0,0.0,0.0,0.0,0.0,0.0,-2.75477741184,0.151557333338,-40.9877877277,-1.0,0.0,0.0,0.0,0.0,0.0,0.0,0.0,0.0
1492398278617297421,243,1492398278547914028,,-176.143002233,-0.882744793369,-1.38035407344,0.0,-1.0,0.0,0.0,0.0,0.0,0.0,0.0,0.0,0.0,-0.0340402001625,0.013127610825,-0.032666380425,-1.0,0.0,0.0,0.0,0.0,0.0,0.0,0.0,0.0,-2.7636925491,-0.632974745116,-40.9877877277,-1.0,0.0,0.0,0.0,0.0,0.0,0.0,0.0,0.0
1492398278636739732,244,1492398278567990064,,-176.143002233,-0.882744793369,-1.38035407344,0.0,-1.0,0.0,0.0,0.0,0.0,0.0,0.0,0.0,0.0,-0.033887553525,0.0123643776375,-0.0312925606875,-1.0,0.0,0.0,0.0,0.0,0.0,0.0,0.0,0.0,-2.7636925491,-0.632974745116,-40.9877877277,-1.0,0.0,0.0,0.0,0.0,0.0,0.0,0.0,0.0
1492398278658460592,245,1492398278587907075,,-176.143002233,-0.882744793369,-1.38035407344,0.0,-1.0,0.0,0.0,0.0,0.0,0.0,0.0,0.0,0.0,-0.035108726625,0.0111432045375,-0.0297660943125,-1.0,0.0,0.0,0.0,0.0,0.0,0.0,0.0,0.0,-2.7636925491,-0.632974745116,-40.9877877277,-1.0,0.0,0.0,0.0,0.0,0.0,0.0,0.0,0.0
1492398278680324803,246,1492398278607942104,,-176.142736209,0.571945419977,-1.38035407344,0.0,-1.0,0.0,0.0,0.0,0.0,0.0,0.0,0.0,0.0,-0.034498140075,0.0114484978125,-0.0254919884625,-1.0,0.0,0.0,0.0,0.0,0.0,0.0,0.0,0.0,-2.7636925491,0.410096313737,-40.9877877277,-1.0,0.0,0.0,0.0,0.0,0.0,0.0,0.0,0.0
1492398278696683806,247,1492398278627911090,,-176.142736209,0.571945419977,-1.38035407344,0.0,-1.0,0.0,0.0,0.0,0.0,0.0,0.0,0.0,0.0,-0.0341928468,0.011906437725,-0.032666380425,-1.0,0.0,0.0,0.0,0.0,0.0,0.0,0.0,0.0,-2.7636925491,0.410096313737,-40.9877877277,-1.0,0.0,0.0,0.0,0.0,0.0,0.0,0.0,0.0
1492398278716625495,248,1492398278647911071,,-176.142736209,0.571945419977,-1.62992788538,0.0,-1.0,0.0,0.0,0.0,0.0,0.0,0.0,0.0,0.0,-0.0349560799875,0.008853504975,-0.0264078682875,-1.0,0.0,0.0,0.0,0.0,0.0,0.0,0.0,0.0,-2.7636925491,0.410096313737,-40.9877877277,-1.0,0.0,0.0,0.0,0.0,0.0,0.0,0.0,0.0
1492398278736652848,249,1492398278667934894,,-176.142736209,0.571945419977,-1.62992788538,0.0,-1.0,0.0,0.0,0.0,0.0,0.0,0.0,0.0,0.0,-0.0329716737,0.0117537910875,-0.0300713875875,-1.0,0.0,0.0,0.0,0.0,0.0,0.0,0.0,0.0,-2.7636925491,0.410096313737,-40.9877877277,-1.0,0.0,0.0,0.0,0.0,0.0,0.0,0.0,0.0
1492398278758201822,250,1492398278687891960,,-176.182776625,2.27432757768,-1.62992788538,0.0,-1.0,0.0,0.0,0.0,0.0,0.0,0.0,0.0,0.0,-0.035719313175,0.011906437725,-0.0293081544,-1.0,0.0,0.0,0.0,0.0,0.0,0.0,0.0,0.0,-2.73694713733,1.63147011769,-40.9877877277,-1.0,0.0,0.0,0.0,0.0,0.0,0.0,0.0,0.0
1492398278776815981,251,1492398278707943916,,-176.182776625,2.27432757768,-1.62992788538,0.0,-1.0,0.0,0.0,0.0,0.0,0.0,0.0,0.0,0.0,-0.0349560799875,0.01160114445,-0.029002861125,-1.0,0.0,0.0,0.0,0.0,0.0,0.0,0.0,0.0,-2.73694713733,1.63147011769,-40.9877877277,-1.0,0.0,0.0,0.0,0.0,0.0,0.0,0.0,0.0
1492398278796718036,252,1492398278727885961,,-176.182776625,2.27432757768,-1.62992788538,0.0,-1.0,0.0,0.0,0.0,0.0,0.0,0.0,0.0,0.0,-0.034498140075,0.011295851175,-0.0319031472375,-1.0,0.0,0.0,0.0,0.0,0.0,0.0,0.0,0.0,-2.73694713733,1.63147011769,-40.9877877277,-1.0,0.0,0.0,0.0,0.0,0.0,0.0,0.0,0.0
1492398278816703328,253,1492398278747920036,,-176.10593029,1.00700671274,-0.927785774462,0.0,-1.0,0.0,0.0,0.0,0.0,0.0,0.0,0.0,0.0,-0.032055793875,0.01160114445,-0.030834620775,-1.0,0.0,0.0,0.0,0.0,0.0,0.0,0.0,0.0,-2.79043796086,0.722126117667,-40.9877877277,-1.0,0.0,0.0,0.0,0.0,0.0,0.0,0.0,0.0
1492398278836608378,254,1492398278767932891,,-176.10593029,1.00700671274,-0.927785774462,0.0,-1.0,0.0,0.0,0.0,0.0,0.0,0.0,0.0,0.0,-0.033887553525,0.0102273247125,-0.0297660943125,-1.0,0.0,0.0,0.0,0.0,0.0,0.0,0.0,0.0,-2.79043796086,0.722126117667,-40.9877877277,-1.0,0.0,0.0,0.0,0.0,0.0,0.0,0.0,0.0
1492398278856761697,255,1492398278787945985,,-176.10593029,1.00700671274,-0.927785774462,0.0,-1.0,0.0,0.0,0.0,0.0,0.0,0.0,0.0,0.0,-0.0341928468,0.012211731,-0.02869756785,-1.0,0.0,0.0,0.0,0.0,0.0,0.0,0.0,0.0,-2.79043796086,0.722126117667,-40.9877877277,-1.0,0.0,0.0,0.0,0.0,0.0,0.0,0.0,0.0
1492398278879466583,256,1492398278807917118,,-176.167891939,-0.957357461433,-0.927785774462,0.0,-1.0,0.0,0.0,0.0,0.0,0.0,0.0,0.0,0.0,-0.0349560799875,0.01282231755,-0.030224034225,-1.0,0.0,0.0,0.0,0.0,0.0,0.0,0.0,0.0,-2.74586227459,-0.686465568647,-40.9877877277,-1.0,0.0,0.0,0.0,0.0,0.0,0.0,0.0,0.0
1492398278898384725,257,1492398278828041076,,-176.167891939,-0.957357461433,-0.927785774462,0.0,-1.0,0.0,0.0,0.0,0.0,0.0,0.0,0.0,0.0,-0.0334296136125,0.012517024275,-0.029613447675,-1.0,0.0,0.0,0.0,0.0,0.0,0.0,0.0,0.0,-2.74586227459,-0.686465568647,-40.9877877277,-1.0,0.0,0.0,0.0,0.0,0.0,0.0,0.0,0.0
1492398278917064035,258,1492398278847995996,,-176.167891939,-0.957357461433,-1.62992788538,0.0,-1.0,0.0,0.0,0.0,0.0,0.0,0.0,0.0,0.0,-0.032666380425,0.0109905579,-0.0306819741375,-1.0,0.0,0.0,0.0,0.0,0.0,0.0,0.0,0.0,-2.74586227459,-0.686465568647,-40.9877877277,-1.0,0.0,0.0,0.0,0.0,0.0,0.0,0.0,0.0
1492398278938011826,259,1492398278867938995,,-176.167891939,0.957357461433,-1.62992788538,0.0,-1.0,0.0,0.0,0.0,0.0,0.0,0.0,0.0,0.0,-0.0343454934375,0.01282231755,-0.0305293275,-1.0,0.0,0.0,0.0,0.0,0.0,0.0,0.0,0.0,-2.74586227459,0.686465568647,-40.9877877277,-1.0,0.0,0.0,0.0,0.0,0.0,0.0,0.0,0.0
1492398278958778494,260,1492398278887907028,,-176.167891939,0.957357461433,-1.62992788538,0.0,-1.0,0.0,0.0,0.0,0.0,0.0,0.0,0.0,0.0,-0.0355666665375,0.0109905579,-0.0291555077625,-1.0,0.0,0.0,0.0,0.0,0.0,0.0,0.0,0.0,-2.74586227459,0.686465568647,-40.9877877277,-1.0,0.0,0.0,0.0,0.0,0.0,0.0,0.0,0.0
1492398278976717729,261,1492398278907910108,,-176.167891939,0.957357461433,-1.62992788538,0.0,-1.0,0.0,0.0,0.0,0.0,0.0,0.0,0.0,0.0,-0.033887553525,0.012517024275,-0.0297660943125,-1.0,0.0,0.0,0.0,0.0,0.0,0.0,0.0,0.0,-2.74586227459,0.686465568647,-40.9877877277,-1.0,0.0,0.0,0.0,0.0,0.0,0.0,0.0,0.0
1492398278996735679,262,1492398278927958011,,-176.167891939,0.957357461433,-1.62992788538,0.0,-1.0,0.0,0.0,0.0,0.0,0.0,0.0,0.0,0.0,-0.0331243203375,0.01037997135,-0.030224034225,-1.0,0.0,0.0,0.0,0.0,0.0,0.0,0.0,0.0,-2.74586227459,0.686465568647,-40.9877877277,-1.0,0.0,0.0,0.0,0.0,0.0,0.0,0.0,0.0
1492398279019223775,263,1492398278948021888,,-176.167660166,0.721155433481,-1.85508525349,0.0,-1.0,0.0,0.0,0.0,0.0,0.0,0.0,0.0,0.0,-0.03602460645,0.0123643776375,-0.02991874095,-1.0,0.0,0.0,0.0,0.0,0.0,0.0,0.0,0.0,-2.74586227459,0.517077960799,-40.9877877277,-1.0,0.0,0.0,0.0,0.0,0.0,0.0,0.0,0.0
1492398279036632490,264,1492398278967894077,,-176.167660166,0.721155433481,-1.85508525349,0.0,-1.0,0.0,0.0,0.0,0.0,0.0,0.0,0.0,0.0,-0.0354140199,0.0105326179875,-0.0317505006,-1.0,0.0,0.0,0.0,0.0,0.0,0.0,0.0,0.0,-2.74586227459,0.517077960799,-40.9877877277,-1.0,0.0,0.0,0.0,0.0,0.0,0.0,0.0,0.0
1492398279078784363,265,1492398278988055944,,-176.167660166,0.721155433481,-1.85508525349,0.0,-1.0,0.0,0.0,0.0,0.0,0.0,0.0,0.0,0.0,-0.034498140075,0.0097693848,-0.0309872674125,-1.0,0.0,0.0,0.0,0.0,0.0,0.0,0.0,0.0,-2.74586227459,0.517077960799,-40.9877877277,-1.0,0.0,0.0,0.0,0.0,0.0,0.0,0.0,0.0
1492398279083093268,266,1492398279008001089,,-176.121173881,2.41070355659,-1.85508525349,0.0,-1.0,0.0,0.0,0.0,0.0,0.0,0.0,0.0,0.0,-0.0329716737,0.012517024275,-0.0300713875875,-1.0,0.0,0.0,0.0,0.0,0.0,0.0,0.0,0.0,-2.78152282361,1.7295366275,-40.9877877277,-1.0,0.0,0.0,0.0,0.0,0.0,0.0,0.0,0.0
1492398279096782533,267,1492398279027986049,,-176.121173881,2.41070355659,-1.85508525349,0.0,-1.0,0.0,0.0,0.0,0.0,0.0,0.0,0.0,0.0,-0.032055793875,0.013738197375,-0.0325137337875,-1.0,0.0,0.0,0.0,0.0,0.0,0.0,0.0,0.0,-2.78152282361,1.7295366275,-40.9877877277,-1.0,0.0,0.0,0.0,0.0,0.0,0.0,0.0,0.0
1492398279116574740,268,1492398279047890901,,-176.121173881,2.41070355659,-1.85508525349,0.0,-1.0,0.0,0.0,0.0,0.0,0.0,0.0,0.0,0.0,-0.0352613732625,0.0129749641875,-0.0328190270625,-1.0,0.0,0.0,0.0,0.0,0.0,0.0,0.0,0.0,-2.78152282361,1.7295366275,-40.9877877277,-1.0,0.0,0.0,0.0,0.0,0.0,0.0,0.0,0.0
1492398279136759817,269,1492398279068032026,,-176.133393933,-2.34867693204,-1.6103006025,0.0,-1.0,0.0,0.0,0.0,0.0,0.0,0.0,0.0,0.0,-0.0349560799875,0.011295851175,-0.03236108715,-1.0,0.0,0.0,0.0,0.0,0.0,0.0,0.0,0.0,-2.77260768635,-1.68496094122,-40.9877877277,-1.0,0.0,0.0,0.0,0.0,0.0,0.0,0.0,0.0
1492398279158301472,270,1492398279088742017,,-176.133393933,-2.34867693204,-1.6103006025,0.0,-1.0,0.0,0.0,0.0,0.0,0.0,0.0,0.0,0.0,-0.0346507867125,0.0111432045375,-0.0300713875875,-1.0,0.0,0.0,0.0,0.0,0.0,0.0,0.0,0.0,-2.77260768635,-1.68496094122,-40.9877877277,-1.0,0.0,0.0,0.0,0.0,0.0,0.0,0.0,0.0
1492398279178165890,271,1492398279108791112,,-176.133393933,-2.34867693204,-1.6103006025,0.0,-1.0,0.0,0.0,0.0,0.0,0.0,0.0,0.0,0.0,-0.03480343335,0.0126696709125,-0.0306819741375,-1.0,0.0,0.0,0.0,0.0,0.0,0.0,0.0,0.0,-2.77260768635,-1.68496094122,-40.9877877277,-1.0,0.0,0.0,0.0,0.0,0.0,0.0,0.0,0.0
1492398279197875215,272,1492398279128663063,,-176.122400502,-2.8077540243,-1.6103006025,0.0,-1.0,0.0,0.0,0.0,0.0,0.0,0.0,0.0,0.0,-0.0334296136125,0.0126696709125,-0.0279343346625,-1.0,0.0,0.0,0.0,0.0,0.0,0.0,0.0,0.0,-2.78152282361,-2.01482101966,-40.9877877277,-1.0,0.0,0.0,0.0,0.0,0.0,0.0,0.0,0.0
1492398279224139733,273,1492398279153301954,,-176.122400502,-2.8077540243,-1.6103006025,0.0,-1.0,0.0,0.0,0.0,0.0,0.0,0.0,0.0,0.0,-0.0328190270625,0.0109905579,-0.029613447675,-1.0,0.0,0.0,0.0,0.0,0.0,0.0,0.0,0.0,-2.78152282361,-2.01482101966,-40.9877877277,-1.0,0.0,0.0,0.0,0.0,0.0,0.0,0.0,0.0
1492398279237860890,274,1492398279168215036,,-176.122400502,-2.8077540243,-1.62333252509,0.0,-1.0,0.0,0.0,0.0,0.0,0.0,0.0,0.0,0.0,-0.03358226025,0.011295851175,-0.0322084405125,-1.0,0.0,0.0,0.0,0.0,0.0,0.0,0.0,0.0,-2.78152282361,-2.01482101966,-40.9877877277,-1.0,0.0,0.0,0.0,0.0,0.0,0.0,0.0,0.0
1492398279257439773,275,1492398279187962055,,-176.122400502,-2.8077540243,-1.62333252509,0.0,-1.0,0.0,0.0,0.0,0.0,0.0,0.0,0.0,0.0,-0.03724577955,0.010685264625,-0.0251866951875,-1.0,0.0,0.0,0.0,0.0,0.0,0.0,0.0,0.0,-2.78152282361,-2.01482101966,-40.9877877277,-1.0,0.0,0.0,0.0,0.0,0.0,0.0,0.0,0.0
1492398279277477632,276,1492398279207987070,,-176.130828648,1.0816144699,-1.62333252509,0.0,-1.0,0.0,0.0,0.0,0.0,0.0,0.0,0.0,0.0,-0.0343454934375,0.0114484978125,-0.03236108715,-1.0,0.0,0.0,0.0,0.0,0.0,0.0,0.0,0.0,-2.77260768635,0.775616941198,-40.9877877277,-1.0,0.0,0.0,0.0,0.0,0.0,0.0,0.0,0.0
1492398279298261535,277,1492398279228019952,,-176.130828648,1.0816144699,-1.62333252509,0.0,-1.0,0.0,0.0,0.0,0.0,0.0,0.0,0.0,0.0,-0.0354140199,0.014348783925,-0.0305293275,-1.0,0.0,0.0,0.0,0.0,0.0,0.0,0.0,0.0,-2.77260768635,0.775616941198,-40.9877877277,-1.0,0.0,0.0,0.0,0.0,0.0,0.0,0.0,0.0
1492398279317303603,278,1492398279247946023,,-176.130828648,1.0816144699,-1.62333252509,0.0,-1.0,0.0,0.0,0.0,0.0,0.0,0.0,0.0,0.0,-0.0334296136125,0.011295851175,-0.0325137337875,-1.0,0.0,0.0,0.0,0.0,0.0,0.0,0.0,0.0,-2.77260768635,0.775616941198,-40.9877877277,-1.0,0.0,0.0,0.0,0.0,0.0,0.0,0.0,0.0
1492398279337364179,279,1492398279267894029,,-176.192482556,0.733609013184,-1.86262094931,0.0,-1.0,0.0,0.0,0.0,0.0,0.0,0.0,0.0,0.0,-0.0346507867125,0.011906437725,-0.0309872674125,-1.0,0.0,0.0,0.0,0.0,0.0,0.0,0.0,0.0,-2.72803200008,0.525993098054,-40.9877877277,-1.0,0.0,0.0,0.0,0.0,0.0,0.0,0.0,0.0
1492398279359296145,280,1492398279287908077,,-176.192482556,0.733609013184,-1.86262094931,0.0,-1.0,0.0,0.0,0.0,0.0,0.0,0.0,0.0,0.0,-0.0343454934375,0.0109905579,-0.033276966975,-1.0,0.0,0.0,0.0,0.0,0.0,0.0,0.0,0.0,-2.72803200008,0.525993098054,-40.9877877277,-1.0,0.0,0.0,0.0,0.0,0.0,0.0,0.0,0.0
1492398279377290021,281,1492398279307904005,,-176.192482556,0.733609013184,-1.86262094931,0.0,-1.0,0.0,0.0,0.0,0.0,0.0,0.0,0.0,0.0,-0.0331243203375,0.0114484978125,-0.0319031472375,-1.0,0.0,0.0,0.0,0.0,0.0,0.0,0.0,0.0,-2.72803200008,0.525993098054,-40.9877877277,-1.0,0.0,0.0,0.0,0.0,0.0,0.0,0.0,0.0
1492398279397257332,282,1492398279327899932,,-176.144010169,-1.57871950433,-1.86262094931,0.0,-1.0,0.0,0.0,0.0,0.0,0.0,0.0,0.0,0.0,-0.0364825463625,0.0108379112625,-0.0280869813,-1.0,0.0,0.0,0.0,0.0,0.0,0.0,0.0,0.0,-2.7636925491,-1.1322224314,-40.9877877277,-1.0,0.0,0.0,0.0,0.0,0.0,0.0,0.0,0.0
1492398279419284057,283,1492398279347963094,,-176.144010169,-1.57871950433,-1.86262094931,0.0,-1.0,0.0,0.0,0.0,0.0,0.0,0.0,0.0,0.0,-0.0343454934375,0.0108379112625,-0.0267131615625,-1.0,0.0,0.0,0.0,0.0,0.0,0.0,0.0,0.0,-2.7636925491,-1.1322224314,-40.9877877277,-1.0,0.0,0.0,0.0,0.0,0.0,0.0,0.0,0.0
1492398279437616460,284,1492398279367894887,,-176.144010169,-1.57871950433,-1.3971810273,0.0,-1.0,0.0,0.0,0.0,0.0,0.0,0.0,0.0,0.0,-0.0334296136125,0.013127610825,-0.0293081544,-1.0,0.0,0.0,0.0,0.0,0.0,0.0,0.0,0.0,-2.7636925491,-1.1322224314,-40.9877877277,-1.0,0.0,0.0,0.0,0.0,0.0,0.0,0.0,0.0
1492398279457294994,285,1492398279387877941,,-176.093542643,1.01942124024,-1.3971810273,0.0,-1.0,0.0,0.0,0.0,0.0,0.0,0.0,0.0,0.0,-0.0319031472375,0.011906437725,-0.0341928468,-1.0,0.0,0.0,0.0,0.0,0.0,0.0,0.0,0.0,-2.79935309812,0.731041254922,-40.9877877277,-1.0,0.0,0.0,0.0,0.0,0.0,0.0,0.0,0.0
1492398279478012272,286,1492398279407891035,,-176.093542643,1.01942124024,-1.3971810273,0.0,-1.0,0.0,0.0,0.0,0.0,0.0,0.0,0.0,0.0,-0.0346507867125,0.0108379112625,-0.0300713875875,-1.0,0.0,0.0,0.0,0.0,0.0,0.0,0.0,0.0,-2.79935309812,0.731041254922,-40.9877877277,-1.0,0.0,0.0,0.0,0.0,0.0,0.0,0.0,0.0
1492398279497554867,287,1492398279428054094,,-176.093542643,1.01942124024,-1.3971810273,0.0,-1.0,0.0,0.0,0.0,0.0,0.0,0.0,0.0,0.0,-0.0337349068875,0.012211731,-0.030224034225,-1.0,0.0,0.0,0.0,0.0,0.0,0.0,0.0,0.0,-2.79935309812,0.731041254922,-40.9877877277,-1.0,0.0,0.0,0.0,0.0,0.0,0.0,0.0,0.0
1492398279517779247,288,1492398279448328971,,-176.093542643,1.01942124024,-1.3971810273,0.0,-1.0,0.0,0.0,0.0,0.0,0.0,0.0,0.0,0.0,-0.033276966975,0.0126696709125,-0.030224034225,-1.0,0.0,0.0,0.0,0.0,0.0,0.0,0.0,0.0,-2.79935309812,0.731041254922,-40.9877877277,-1.0,0.0,0.0,0.0,0.0,0.0,0.0,0.0,0.0
1492398279536705487,289,1492398279467914104,,-176.183692412,2.59704114797,-1.15967520848,0.0,-1.0,0.0,0.0,0.0,0.0,0.0,0.0,0.0,0.0,-0.0319031472375,0.0132802574625,-0.035108726625,-1.0,0.0,0.0,0.0,0.0,0.0,0.0,0.0,0.0,-2.73694713733,1.86326368633,-40.9877877277,-1.0,0.0,0.0,0.0,0.0,0.0,0.0,0.0,0.0
1492398279557280106,290,1492398279487946987,,-176.183692412,2.59704114797,-1.15967520848,0.0,-1.0,0.0,0.0,0.0,0.0,0.0,0.0,0.0,0.0,-0.0334296136125,0.012517024275,-0.0315978539625,-1.0,0.0,0.0,0.0,0.0,0.0,0.0,0.0,0.0,-2.73694713733,1.86326368633,-40.9877877277,-1.0,0.0,0.0,0.0,0.0,0.0,0.0,0.0,0.0
1492398279577319005,291,1492398279507872104,,-176.183692412,2.59704114797,-1.15967520848,0.0,-1.0,0.0,0.0,0.0,0.0,0.0,0.0,0.0,0.0,-0.0364825463625,0.00915879825,-0.031445207325,-1.0,0.0,0.0,0.0,0.0,0.0,0.0,0.0,0.0,-2.73694713733,1.86326368633,-40.9877877277,-1.0,0.0,0.0,0.0,0.0,0.0,0.0,0.0,0.0
1492398279599867231,292,1492398279527940034,,-176.179843959,-0.373031261752,-1.15967520848,0.0,-1.0,0.0,0.0,0.0,0.0,0.0,0.0,0.0,0.0,-0.0358719598125,0.0132802574625,-0.0329716737,-1.0,0.0,0.0,0.0,0.0,0.0,0.0,0.0,0.0,-2.73694713733,-0.267454117654,-40.9877877277,-1.0,0.0,0.0,0.0,0.0,0.0,0.0,0.0,0.0
1492398279617413954,293,1492398279547944068,,-176.179843959,-0.373031261752,-1.15967520848,0.0,-1.0,0.0,0.0,0.0,0.0,0.0,0.0,0.0,0.0,-0.0341928468,0.010685264625,-0.033276966975,-1.0,0.0,0.0,0.0,0.0,0.0,0.0,0.0,0.0,-2.73694713733,-0.267454117654,-40.9877877277,-1.0,0.0,0.0,0.0,0.0,0.0,0.0,0.0,0.0
1492398279637508481,294,1492398279568015098,,-176.179843959,-0.373031261752,-1.16438804012,0.0,-1.0,0.0,0.0,0.0,0.0,0.0,0.0,0.0,0.0,-0.033276966975,0.010074678075,-0.0322084405125,-1.0,0.0,0.0,0.0,0.0,0.0,0.0,0.0,0.0,-2.73694713733,-0.267454117654,-40.9877877277,-1.0,0.0,0.0,0.0,0.0,0.0,0.0,0.0,0.0
1492398279657328400,295,1492398279587970972,,-176.143684367,1.39233488169,-1.16438804012,0.0,-1.0,0.0,0.0,0.0,0.0,0.0,0.0,0.0,0.0,-0.0349560799875,0.0117537910875,-0.0285449212125,-1.0,0.0,0.0,0.0,0.0,0.0,0.0,0.0,0.0,-2.7636925491,0.998495372577,-40.9877877277,-1.0,0.0,0.0,0.0,0.0,0.0,0.0,0.0,0.0
1492398279677168221,296,1492398279607882022,,-176.143684367,1.39233488169,-1.16438804012,0.0,-1.0,0.0,0.0,0.0,0.0,0.0,0.0,0.0,0.0,-0.0354140199,0.0111432045375,-0.0322084405125,-1.0,0.0,0.0,0.0,0.0,0.0,0.0,0.0,0.0,-2.7636925491,0.998495372577,-40.9877877277,-1.0,0.0,0.0,0.0,0.0,0.0,0.0,0.0,0.0
1492398279697537884,297,1492398279627949953,,-176.143684367,1.39233488169,-1.16438804012,0.0,-1.0,0.0,0.0,0.0,0.0,0.0,0.0,0.0,0.0,-0.035108726625,0.01160114445,-0.0334296136125,-1.0,0.0,0.0,0.0,0.0,0.0,0.0,0.0,0.0,-2.7636925491,0.998495372577,-40.9877877277,-1.0,0.0,0.0,0.0,0.0,0.0,0.0,0.0,0.0
1492398279725452381,298,1492398279647886991,,-176.133180647,5.1090771656,-1.16438804012,0.0,-1.0,0.0,0.0,0.0,0.0,0.0,0.0,0.0,0.0,-0.0355666665375,0.0123643776375,-0.0309872674125,-1.0,0.0,0.0,0.0,0.0,0.0,0.0,0.0,0.0,-2.78152282361,3.67303654912,-40.9877877277,-1.0,0.0,0.0,0.0,0.0,0.0,0.0,0.0,0.0
1492398279737665088,299,1492398279668349981,,-176.133180647,5.1090771656,-1.61679031067,0.0,-1.0,0.0,0.0,0.0,0.0,0.0,0.0,0.0,0.0,-0.0337349068875,0.0123643776375,-0.033887553525,-1.0,0.0,0.0,0.0,0.0,0.0,0.0,0.0,0.0,-2.78152282361,3.67303654912,-40.9877877277,-1.0,0.0,0.0,0.0,0.0,0.0,0.0,0.0,0.0
1492398279757432710,300,1492398279687908887,,-176.133180647,5.1090771656,-1.61679031067,0.0,-1.0,0.0,0.0,0.0,0.0,0.0,0.0,0.0,0.0,-0.03358226025,0.01282231755,-0.0297660943125,-1.0,0.0,0.0,0.0,0.0,0.0,0.0,0.0,0.0,-2.78152282361,3.67303654912,-40.9877877277,-1.0,0.0,0.0,0.0,0.0,0.0,0.0,0.0,0.0
1492398279777513902,301,1492398279708167076,,-176.133180647,5.1090771656,-1.61679031067,0.0,-1.0,0.0,0.0,0.0,0.0,0.0,0.0,0.0,0.0,-0.032666380425,0.012517024275,-0.030834620775,-1.0,0.0,0.0,0.0,0.0,0.0,0.0,0.0,0.0,-2.78152282361,3.67303654912,-40.9877877277,-1.0,0.0,0.0,0.0,0.0,0.0,0.0,0.0,0.0
1492398279799683280,302,1492398279727955102,,-176.107004529,4.86214018514,-1.61679031067,0.0,-1.0,0.0,0.0,0.0,0.0,0.0,0.0,0.0,0.0,-0.035719313175,0.0108379112625,-0.0325137337875,-1.0,0.0,0.0,0.0,0.0,0.0,0.0,0.0,0.0,-2.79935309812,3.49473380402,-40.9877877277,-1.0,0.0,0.0,0.0,0.0,0.0,0.0,0.0,0.0
1492398279819775798,303,1492398279747889041,,-176.107004529,4.86214018514,-1.61679031067,0.0,-1.0,0.0,0.0,0.0,0.0,0.0,0.0,0.0,0.0,-0.0346507867125,0.0111432045375,-0.0303766808625,-1.0,0.0,0.0,0.0,0.0,0.0,0.0,0.0,0.0,-2.79935309812,3.49473380402,-40.9877877277,-1.0,0.0,0.0,0.0,0.0,0.0,0.0,0.0,0.0
1492398279838515946,304,1492398279767877101,,-176.107004529,4.86214018514,-1.61679031067,0.0,-1.0,0.0,0.0,0.0,0.0,0.0,0.0,0.0,0.0,-0.0343454934375,0.0123643776375,-0.02991874095,-1.0,0.0,0.0,0.0,0.0,0.0,0.0,0.0,0.0,-2.79935309812,3.49473380402,-40.9877877277,-1.0,0.0,0.0,0.0,0.0,0.0,0.0,0.0,0.0
1492398279857278369,305,1492398279787909030,,-176.119958891,1.93890813634,-1.61679031067,0.0,-1.0,0.0,0.0,0.0,0.0,0.0,0.0,0.0,0.0,-0.0334296136125,0.0138908440125,-0.0325137337875,-1.0,0.0,0.0,0.0,0.0,0.0,0.0,0.0,0.0,-2.78152282361,1.3907614118,-40.9877877277,-1.0,0.0,0.0,0.0,0.0,0.0,0.0,0.0,0.0
1492398279877302597,306,1492398279807914972,,-176.119958891,1.93890813634,-1.61679031067,0.0,-1.0,0.0,0.0,0.0,0.0,0.0,0.0,0.0,0.0,-0.0340402001625,0.0108379112625,-0.02869756785,-1.0,0.0,0.0,0.0,0.0,0.0,0.0,0.0,0.0,-2.78152282361,1.3907614118,-40.9877877277,-1.0,0.0,0.0,0.0,0.0,0.0,0.0,0.0,0.0
1492398279897321222,307,1492398279827917098,,-176.119958891,1.93890813634,-1.61679031067,0.0,-1.0,0.0,0.0,0.0,0.0,0.0,0.0,0.0,0.0,-0.035108726625,0.0120590843625,-0.028392274575,-1.0,0.0,0.0,0.0,0.0,0.0,0.0,0.0,0.0,-2.78152282361,1.3907614118,-40.9877877277,-1.0,0.0,0.0,0.0,0.0,0.0,0.0,0.0,0.0
1492398279917313069,308,1492398279847968101,,-176.159655038,2.83268517683,-1.61679031067,0.0,-1.0,0.0,0.0,0.0,0.0,0.0,0.0,0.0,0.0,-0.0352613732625,0.0120590843625,-0.0261025750125,-1.0,0.0,0.0,0.0,0.0,0.0,0.0,0.0,0.0,-2.75477741184,2.03265129417,-40.9877877277,-1.0,0.0,0.0,0.0,0.0,0.0,0.0,0.0,0.0
1492398279937387503,309,1492398279867909908,,-176.159655038,2.83268517683,-1.62333252509,0.0,-1.0,0.0,0.0,0.0,0.0,0.0,0.0,0.0,0.0,-0.032666380425,0.0123643776375,-0.028392274575,-1.0,0.0,0.0,0.0,0.0,0.0,0.0,0.0,0.0,-2.75477741184,2.03265129417,-40.9877877277,-1.0,0.0,0.0,0.0,0.0,0.0,0.0,0.0,0.0
1492398279957278031,310,1492398279887903928,,-176.159655038,2.83268517683,-1.62333252509,0.0,-1.0,0.0,0.0,0.0,0.0,0.0,0.0,0.0,0.0,-0.0328190270625,0.0114484978125,-0.0261025750125,-1.0,0.0,0.0,0.0,0.0,0.0,0.0,0.0,0.0,-2.75477741184,2.03265129417,-40.9877877277,-1.0,0.0,0.0,0.0,0.0,0.0,0.0,0.0,0.0
1492398279977274179,311,1492398279907903909,,-176.109107122,2.52236199674,-1.62333252509,0.0,-1.0,0.0,0.0,0.0,0.0,0.0,0.0,0.0,0.0,-0.03480343335,0.0102273247125,-0.027171101475,-1.0,0.0,0.0,0.0,0.0,0.0,0.0,0.0,0.0,-2.79043796086,1.8097728628,-40.9877877277,-1.0,0.0,0.0,0.0,0.0,0.0,0.0,0.0,0.0
1492398279997863553,312,1492398279927913904,,-176.109107122,2.52236199674,-1.62333252509,0.0,-1.0,0.0,0.0,0.0,0.0,0.0,0.0,0.0,0.0,-0.0325137337875,0.0129749641875,-0.0306819741375,-1.0,0.0,0.0,0.0,0.0,0.0,0.0,0.0,0.0,-2.79043796086,1.8097728628,-40.9877877277,-1.0,0.0,0.0,0.0,0.0,0.0,0.0,0.0,0.0
1492398280017244734,313,1492398279948015928,,-176.109107122,2.52236199674,-1.62333252509,0.0,-1.0,0.0,0.0,0.0,0.0,0.0,0.0,0.0,0.0,-0.03236108715,0.0126696709125,-0.0317505006,-1.0,0.0,0.0,0.0,0.0,0.0,0.0,0.0,0.0,-2.79043796086,1.8097728628,-40.9877877277,-1.0,0.0,0.0,0.0,0.0,0.0,0.0,0.0,0.0
1492398280037276459,314,1492398279967919111,,-176.109107122,2.52236199674,-1.38035407344,0.0,-1.0,0.0,0.0,0.0,0.0,0.0,0.0,0.0,0.0,-0.0343454934375,0.013127610825,-0.0291555077625,-1.0,0.0,0.0,0.0,0.0,0.0,0.0,0.0,0.0,-2.79043796086,1.8097728628,-40.9877877277,-1.0,0.0,0.0,0.0,0.0,0.0,0.0,0.0,0.0
1492398280057371129,315,1492398279987915039,,-176.106104976,1.14372655595,-1.38035407344,0.0,-1.0,0.0,0.0,0.0,0.0,0.0,0.0,0.0,0.0,-0.03480343335,0.01160114445,-0.0312925606875,-1.0,0.0,0.0,0.0,0.0,0.0,0.0,0.0,0.0,-2.79043796086,0.820192627474,-40.9877877277,-1.0,0.0,0.0,0.0,0.0,0.0,0.0,0.0,0.0
1492398280077234143,316,1492398280007911920,,-176.106104976,1.14372655595,-1.38035407344,0.0,-1.0,0.0,0.0,0.0,0.0,0.0,0.0,0.0,0.0,-0.0343454934375,0.010685264625,-0.033887553525,-1.0,0.0,0.0,0.0,0.0,0.0,0.0,0.0,0.0,-2.79043796086,0.820192627474,-40.9877877277,-1.0,0.0,0.0,0.0,0.0,0.0,0.0,0.0,0.0
1492398280097569911,317,1492398280027911901,,-176.106104976,1.14372655595,-1.38035407344,0.0,-1.0,0.0,0.0,0.0,0.0,0.0,0.0,0.0,0.0,-0.0309872674125,0.0105326179875,-0.027171101475,-1.0,0.0,0.0,0.0,0.0,0.0,0.0,0.0,0.0,-2.79043796086,0.820192627474,-40.9877877277,-1.0,0.0,0.0,0.0,0.0,0.0,0.0,0.0,0.0
1492398280117598257,318,1492398280047980070,,-176.117773148,0.26110473489,-1.38035407344,0.0,-1.0,0.0,0.0,0.0,0.0,0.0,0.0,0.0,0.0,-0.034498140075,0.0126696709125,-0.028392274575,-1.0,0.0,0.0,0.0,0.0,0.0,0.0,0.0,0.0,-2.78152282361,0.187217882358,-40.9877877277,-1.0,0.0,0.0,0.0,0.0,0.0,0.0,0.0,0.0
1492398280146783551,319,1492398280067929029,,-176.117773148,0.26110473489,-1.38035407344,0.0,-1.0,0.0,0.0,0.0,0.0,0.0,0.0,0.0,0.0,-0.0354140199,0.0111432045375,-0.030224034225,-1.0,0.0,0.0,0.0,0.0,0.0,0.0,0.0,0.0,-2.78152282361,0.187217882358,-40.9877877277,-1.0,0.0,0.0,0.0,0.0,0.0,0.0,0.0,0.0
1492398280163301243,320,1492398280092607021,,-176.117773148,0.26110473489,-1.38591785081,0.0,-1.0,0.0,0.0,0.0,0.0,0.0,0.0,0.0,0.0,-0.0346507867125,0.0114484978125,-0.0285449212125,-1.0,0.0,0.0,0.0,0.0,0.0,0.0,0.0,0.0,-2.78152282361,0.187217882358,-40.9877877277,-1.0,0.0,0.0,0.0,0.0,0.0,0.0,0.0,0.0
1492398280179064282,321,1492398280108935117,,-176.1391619,3.91057193948,-1.38591785081,0.0,-1.0,0.0,0.0,0.0,0.0,0.0,0.0,0.0,0.0,-0.03602460645,0.0117537910875,-0.0309872674125,-1.0,0.0,0.0,0.0,0.0,0.0,0.0,0.0,0.0,-2.77260768635,2.80826823537,-40.9877877277,-1.0,0.0,0.0,0.0,0.0,0.0,0.0,0.0,0.0
1492398280214489715,322,1492398280128670930,,-176.1391619,3.91057193948,-1.38591785081,0.0,-1.0,0.0,0.0,0.0,0.0,0.0,0.0,0.0,0.0,-0.0341928468,0.01282231755,-0.031445207325,-1.0,0.0,0.0,0.0,0.0,0.0,0.0,0.0,0.0,-2.77260768635,2.80826823537,-40.9877877277,-1.0,0.0,0.0,0.0,0.0,0.0,0.0,0.0,0.0
1492398280219945359,323,1492398280148957967,,-176.1391619,3.91057193948,-1.38591785081,0.0,-1.0,0.0,0.0,0.0,0.0,0.0,0.0,0.0,0.0,-0.035719313175,0.0126696709125,-0.0279343346625,-1.0,0.0,0.0,0.0,0.0,0.0,0.0,0.0,0.0,-2.77260768635,2.80826823537,-40.9877877277,-1.0,0.0,0.0,0.0,0.0,0.0,0.0,0.0,0.0
1492398280238415530,324,1492398280168526887,,-176.155987531,1.33021931133,-1.38591785081,0.0,-1.0,0.0,0.0,0.0,0.0,0.0,0.0,0.0,0.0,-0.032666380425,0.011295851175,-0.0306819741375,-1.0,0.0,0.0,0.0,0.0,0.0,0.0,0.0,0.0,-2.75477741184,0.953919686301,-40.9877877277,-1.0,0.0,0.0,0.0,0.0,0.0,0.0,0.0,0.0
1492398280260258291,325,1492398280190538883,,-176.155987531,1.33021931133,-1.38035407344,0.0,-1.0,0.0,0.0,0.0,0.0,0.0,0.0,0.0,0.0,-0.0334296136125,0.0126696709125,-0.03236108715,-1.0,0.0,0.0,0.0,0.0,0.0,0.0,0.0,0.0,-2.75477741184,0.953919686301,-40.9877877277,-1.0,0.0,0.0,0.0,0.0,0.0,0.0,0.0,0.0
1492398280277684357,326,1492398280208046913,,-176.155987531,1.33021931133,-1.38035407344,0.0,-1.0,0.0,0.0,0.0,0.0,0.0,0.0,0.0,0.0,-0.0346507867125,0.0132802574625,-0.0294608010375,-1.0,0.0,0.0,0.0,0.0,0.0,0.0,0.0,0.0,-2.75477741184,0.953919686301,-40.9877877277,-1.0,0.0,0.0,0.0,0.0,0.0,0.0,0.0,0.0
1492398280297928830,327,1492398280228056907,,-176.155987531,1.33021931133,-1.38035407344,0.0,-1.0,0.0,0.0,0.0,0.0,0.0,0.0,0.0,0.0,-0.03602460645,0.0096167381625,-0.03113991405,-1.0,0.0,0.0,0.0,0.0,0.0,0.0,0.0,0.0,-2.75477741184,0.953919686301,-40.9877877277,-1.0,0.0,0.0,0.0,0.0,0.0,0.0,0.0,0.0
1492398280317295268,328,1492398280247961997,,-176.165947374,-4.33126308279,-1.38035407344,0.0,-1.0,0.0,0.0,0.0,0.0,0.0,0.0,0.0,0.0,-0.0329716737,0.0108379112625,-0.0303766808625,-1.0,0.0,0.0,0.0,0.0,0.0,0.0,0.0,0.0,-2.75477741184,-3.11138290205,-40.9877877277,-1.0,0.0,0.0,0.0,0.0,0.0,0.0,0.0,0.0
1492398280337180672,329,1492398280267885923,,-176.165947374,-4.33126308279,-1.38035407344,0.0,-1.0,0.0,0.0,0.0,0.0,0.0,0.0,0.0,0.0,-0.0341928468,0.011295851175,-0.0294608010375,-1.0,0.0,0.0,0.0,0.0,0.0,0.0,0.0,0.0,-2.75477741184,-3.11138290205,-40.9877877277,-1.0,0.0,0.0,0.0,0.0,0.0,0.0,0.0,0.0
1492398280356979857,330,1492398280287926912,,-176.165947374,-4.33126308279,-1.38591785081,0.0,-1.0,0.0,0.0,0.0,0.0,0.0,0.0,0.0,0.0,-0.034498140075,0.0126696709125,-0.032666380425,-1.0,0.0,0.0,0.0,0.0,0.0,0.0,0.0,0.0,-2.75477741184,-3.11138290205,-40.9877877277,-1.0,0.0,0.0,0.0,0.0,0.0,0.0,0.0,0.0
1492398280377440248,331,1492398280307982921,,-176.165635816,4.26944170764,-1.38591785081,0.0,-1.0,0.0,0.0,0.0,0.0,0.0,0.0,0.0,0.0,-0.0364825463625,0.013127610825,-0.0306819741375,-1.0,0.0,0.0,0.0,0.0,0.0,0.0,0.0,0.0,-2.75477741184,3.06680721577,-40.9877877277,-1.0,0.0,0.0,0.0,0.0,0.0,0.0,0.0,0.0
1492398280397358322,332,1492398280327950000,,-176.165635816,4.26944170764,-1.38591785081,0.0,-1.0,0.0,0.0,0.0,0.0,0.0,0.0,0.0,0.0,-0.0337349068875,0.01160114445,-0.0303766808625,-1.0,0.0,0.0,0.0,0.0,0.0,0.0,0.0,0.0,-2.75477741184,3.06680721577,-40.9877877277,-1.0,0.0,0.0,0.0,0.0,0.0,0.0,0.0,0.0
1492398280419161629,333,1492398280347919940,,-176.165635816,4.26944170764,-1.38591785081,0.0,-1.0,0.0,0.0,0.0,0.0,0.0,0.0,0.0,0.0,-0.0315978539625,0.012211731,-0.0300713875875,-1.0,0.0,0.0,0.0,0.0,0.0,0.0,0.0,0.0,-2.75477741184,3.06680721577,-40.9877877277,-1.0,0.0,0.0,0.0,0.0,0.0,0.0,0.0,0.0
1492398280437561452,334,1492398280367976903,,-176.136773976,3.3532994183,-1.38591785081,0.0,-1.0,0.0,0.0,0.0,0.0,0.0,0.0,0.0,0.0,-0.033887553525,0.009464091525,-0.0288502144875,-1.0,0.0,0.0,0.0,0.0,0.0,0.0,0.0,0.0,-2.77260768635,2.40708705889,-40.9877877277,-1.0,0.0,0.0,0.0,0.0,0.0,0.0,0.0,0.0
1492398280457281226,335,1492398280387895107,,-176.136773976,3.3532994183,-1.36935944091,0.0,-1.0,0.0,0.0,0.0,0.0,0.0,0.0,0.0,0.0,-0.0341928468,0.0114484978125,-0.0317505006,-1.0,0.0,0.0,0.0,0.0,0.0,0.0,0.0,0.0,-2.77260768635,2.40708705889,-40.9877877277,-1.0,0.0,0.0,0.0,0.0,0.0,0.0,0.0,0.0
1492398280477321125,336,1492398280407941102,,-176.136773976,3.3532994183,-1.36935944091,0.0,-1.0,0.0,0.0,0.0,0.0,0.0,0.0,0.0,0.0,-0.03480343335,0.0093114448875,-0.02625522165,-1.0,0.0,0.0,0.0,0.0,0.0,0.0,0.0,0.0,-2.77260768635,2.40708705889,-40.9877877277,-1.0,0.0,0.0,0.0,0.0,0.0,0.0,0.0,0.0
1492398280496846304,337,1492398280427908897,,-176.179929454,0.53467017613,-1.36935944091,0.0,-1.0,0.0,0.0,0.0,0.0,0.0,0.0,0.0,0.0,-0.03480343335,0.0129749641875,-0.0297660943125,-1.0,0.0,0.0,0.0,0.0,0.0,0.0,0.0,0.0,-2.73694713733,0.383350901971,-40.9877877277,-1.0,0.0,0.0,0.0,0.0,0.0,0.0,0.0,0.0
1492398280517049908,338,1492398280447937011,,-176.179929454,0.53467017613,-1.36935944091,0.0,-1.0,0.0,0.0,0.0,0.0,0.0,0.0,0.0,0.0,-0.035108726625,0.0114484978125,-0.0309872674125,-1.0,0.0,0.0,0.0,0.0,0.0,0.0,0.0,0.0,-2.73694713733,0.383350901971,-40.9877877277,-1.0,0.0,0.0,0.0,0.0,0.0,0.0,0.0,0.0
1492398280537682823,339,1492398280467957973,,-176.179929454,0.53467017613,-1.36935944091,0.0,-1.0,0.0,0.0,0.0,0.0,0.0,0.0,0.0,0.0,-0.0354140199,0.011906437725,-0.0328190270625,-1.0,0.0,0.0,0.0,0.0,0.0,0.0,0.0,0.0,-2.73694713733,0.383350901971,-40.9877877277,-1.0,0.0,0.0,0.0,0.0,0.0,0.0,0.0,0.0
1492398280557325779,340,1492398280487951993,,-176.179929454,0.53467017613,-1.3971810273,0.0,-1.0,0.0,0.0,0.0,0.0,0.0,0.0,0.0,0.0,-0.035108726625,0.0135855507375,-0.0305293275,-1.0,0.0,0.0,0.0,0.0,0.0,0.0,0.0,0.0,-2.73694713733,0.383350901971,-40.9877877277,-1.0,0.0,0.0,0.0,0.0,0.0,0.0,0.0,0.0
1492398280577451202,341,1492398280507920980,,-176.167408194,0.298422205413,-1.3971810273,0.0,-1.0,0.0,0.0,0.0,0.0,0.0,0.0,0.0,0.0,-0.03602460645,0.013127610825,-0.0319031472375,-1.0,0.0,0.0,0.0,0.0,0.0,0.0,0.0,0.0,-2.74586227459,0.213963294124,-40.9877877277,-1.0,0.0,0.0,0.0,0.0,0.0,0.0,0.0,0.0
1492398280596854524,342,1492398280527909994,,-176.167408194,0.298422205413,-1.3971810273,0.0,-1.0,0.0,0.0,0.0,0.0,0.0,0.0,0.0,0.0,-0.036329899725,0.01037997135,-0.0279343346625,-1.0,0.0,0.0,0.0,0.0,0.0,0.0,0.0,0.0,-2.74586227459,0.213963294124,-40.9877877277,-1.0,0.0,0.0,0.0,0.0,0.0,0.0,0.0,0.0
1492398280619123590,343,1492398280547894001,,-176.167408194,0.298422205413,-1.3971810273,0.0,-1.0,0.0,0.0,0.0,0.0,0.0,0.0,0.0,0.0,-0.0340402001625,0.0117537910875,-0.0346507867125,-1.0,0.0,0.0,0.0,0.0,0.0,0.0,0.0,0.0,-2.74586227459,0.213963294124,-40.9877877277,-1.0,0.0,0.0,0.0,0.0,0.0,0.0,0.0,0.0
1492398280639416890,344,1492398280567874908,,-176.068179363,-4.55320070069,-1.3971810273,0.0,-1.0,0.0,0.0,0.0,0.0,0.0,0.0,0.0,0.0,-0.0355666665375,0.0102273247125,-0.0297660943125,-1.0,0.0,0.0,0.0,0.0,0.0,0.0,0.0,0.0,-2.82609850988,-3.27185537264,-40.9877877277,-1.0,0.0,0.0,0.0,0.0,0.0,0.0,0.0,0.0
1492398280657708644,345,1492398280587924957,,-176.068179363,-4.55320070069,-1.16438804012,0.0,-1.0,0.0,0.0,0.0,0.0,0.0,0.0,0.0,0.0,-0.0354140199,0.010685264625,-0.0282396279375,-1.0,0.0,0.0,0.0,0.0,0.0,0.0,0.0,0.0,-2.82609850988,-3.27185537264,-40.9877877277,-1.0,0.0,0.0,0.0,0.0,0.0,0.0,0.0,0.0
1492398280677255342,346,1492398280607896089,,-176.068179363,-4.55320070069,-1.16438804012,0.0,-1.0,0.0,0.0,0.0,0.0,0.0,0.0,0.0,0.0,-0.0334296136125,0.0105326179875,-0.03113991405,-1.0,0.0,0.0,0.0,0.0,0.0,0.0,0.0,0.0,-2.82609850988,-3.27185537264,-40.9877877277,-1.0,0.0,0.0,0.0,0.0,0.0,0.0,0.0,0.0
1492398280702357162,347,1492398280627898931,,-176.117762437,-0.223804469511,-1.16438804012,0.0,-1.0,0.0,0.0,0.0,0.0,0.0,0.0,0.0,0.0,-0.036635193,0.0120590843625,-0.0297660943125,-1.0,0.0,0.0,0.0,0.0,0.0,0.0,0.0,0.0,-2.78152282361,-0.160472470593,-40.9877877277,-1.0,0.0,0.0,0.0,0.0,0.0,0.0,0.0,0.0
1492398280717194172,348,1492398280647885084,,-176.117762437,-0.223804469511,-1.16438804012,0.0,-1.0,0.0,0.0,0.0,0.0,0.0,0.0,0.0,0.0,-0.0354140199,0.010685264625,-0.0306819741375,-1.0,0.0,0.0,0.0,0.0,0.0,0.0,0.0,0.0,-2.78152282361,-0.160472470593,-40.9877877277,-1.0,0.0,0.0,0.0,0.0,0.0,0.0,0.0,0.0
1492398280737100173,349,1492398280667879104,,-176.117762437,-0.223804469511,-1.16438804012,0.0,-1.0,0.0,0.0,0.0,0.0,0.0,0.0,0.0,0.0,-0.0346507867125,0.0111432045375,-0.0300713875875,-1.0,0.0,0.0,0.0,0.0,0.0,0.0,0.0,0.0,-2.78152282361,-0.160472470593,-40.9877877277,-1.0,0.0,0.0,0.0,0.0,0.0,0.0,0.0,0.0
1492398280757290919,350,1492398280687901973,,-176.117762437,-0.223804469511,-1.38035407344,0.0,-1.0,0.0,0.0,0.0,0.0,0.0,0.0,0.0,0.0,-0.034498140075,0.0123643776375,-0.0285449212125,-1.0,0.0,0.0,0.0,0.0,0.0,0.0,0.0,0.0,-2.78152282361,-0.160472470593,-40.9877877277,-1.0,0.0,0.0,0.0,0.0,0.0,0.0,0.0,0.0
1492398280777263297,351,1492398280707899093,,-176.117762437,-0.223804469511,-1.38035407344,0.0,-1.0,0.0,0.0,0.0,0.0,0.0,0.0,0.0,0.0,-0.033887553525,0.012211731,-0.0370931329125,-1.0,0.0,0.0,0.0,0.0,0.0,0.0,0.0,0.0,-2.78152282361,-0.160472470593,-40.9877877277,-1.0,0.0,0.0,0.0,0.0,0.0,0.0,0.0,0.0
1492398280797271942,352,1492398280727899074,,-176.117762437,-0.223804469511,-1.38035407344,0.0,-1.0,0.0,0.0,0.0,0.0,0.0,0.0,0.0,0.0,-0.034498140075,0.0099220314375,-0.027781688025,-1.0,0.0,0.0,0.0,0.0,0.0,0.0,0.0,0.0,-2.78152282361,-0.160472470593,-40.9877877277,-1.0,0.0,0.0,0.0,0.0,0.0,0.0,0.0,0.0
1492398280817592449,353,1492398280747872114,,-176.117762437,-0.223804469511,-1.38035407344,0.0,-1.0,0.0,0.0,0.0,0.0,0.0,0.0,0.0,0.0,-0.035108726625,0.0114484978125,-0.0291555077625,-1.0,0.0,0.0,0.0,0.0,0.0,0.0,0.0,0.0,-2.78152282361,-0.160472470593,-40.9877877277,-1.0,0.0,0.0,0.0,0.0,0.0,0.0,0.0,0.0
1492398280837172062,354,1492398280767888069,,-176.162191756,3.51446154302,-1.38035407344,0.0,-1.0,0.0,0.0,0.0,0.0,0.0,0.0,0.0,0.0,-0.033276966975,0.01037997135,-0.0328190270625,-1.0,0.0,0.0,0.0,0.0,0.0,0.0,0.0,0.0,-2.75477741184,2.52298384321,-40.9877877277,-1.0,0.0,0.0,0.0,0.0,0.0,0.0,0.0,0.0
1492398280857209389,355,1492398280787955045,,-176.162191756,3.51446154302,-1.39152665255,0.0,-1.0,0.0,0.0,0.0,0.0,0.0,0.0,0.0,0.0,-0.0331243203375,0.010074678075,-0.027781688025,-1.0,0.0,0.0,0.0,0.0,0.0,0.0,0.0,0.0,-2.75477741184,2.52298384321,-40.9877877277,-1.0,0.0,0.0,0.0,0.0,0.0,0.0,0.0,0.0
1492398280877238165,356,1492398280807921886,,-176.162191756,3.51446154302,-1.39152665255,0.0,-1.0,0.0,0.0,0.0,0.0,0.0,0.0,0.0,0.0,-0.0343454934375,0.0111432045375,-0.0312925606875,-1.0,0.0,0.0,0.0,0.0,0.0,0.0,0.0,0.0,-2.75477741184,2.52298384321,-40.9877877277,-1.0,0.0,0.0,0.0,0.0,0.0,0.0,0.0,0.0
1492398280897251211,357,1492398280827918052,,-176.174173623,3.41540089378,-1.39152665255,0.0,-1.0,0.0,0.0,0.0,0.0,0.0,0.0,0.0,0.0,-0.0341928468,0.012517024275,-0.0285449212125,-1.0,0.0,0.0,0.0,0.0,0.0,0.0,0.0,0.0,-2.74586227459,2.45166274517,-40.9877877277,-1.0,0.0,0.0,0.0,0.0,0.0,0.0,0.0,0.0
1492398280917298444,358,1492398280847929954,,-176.174173623,3.41540089378,-1.39152665255,0.0,-1.0,0.0,0.0,0.0,0.0,0.0,0.0,0.0,0.0,-0.0355666665375,0.010685264625,-0.0322084405125,-1.0,0.0,0.0,0.0,0.0,0.0,0.0,0.0,0.0,-2.74586227459,2.45166274517,-40.9877877277,-1.0,0.0,0.0,0.0,0.0,0.0,0.0,0.0,0.0
1492398280937097512,359,1492398280867945909,,-176.174173623,3.41540089378,-1.39152665255,0.0,-1.0,0.0,0.0,0.0,0.0,0.0,0.0,0.0,0.0,-0.0329716737,0.0120590843625,-0.030834620775,-1.0,0.0,0.0,0.0,0.0,0.0,0.0,0.0,0.0,-2.74586227459,2.45166274517,-40.9877877277,-1.0,0.0,0.0,0.0,0.0,0.0,0.0,0.0,0.0
1492398280957448599,360,1492398280888050079,,-176.117820753,0.385437176803,-1.62992788538,0.0,-1.0,0.0,0.0,0.0,0.0,0.0,0.0,0.0,0.0,-0.03236108715,0.0129749641875,-0.0317505006,-1.0,0.0,0.0,0.0,0.0,0.0,0.0,0.0,0.0,-2.78152282361,0.27636925491,-40.9877877277,-1.0,0.0,0.0,0.0,0.0,0.0,0.0,0.0,0.0
1492398280977639791,361,1492398280907958984,,-176.117820753,0.385437176803,-1.62992788538,0.0,-1.0,0.0,0.0,0.0,0.0,0.0,0.0,0.0,0.0,-0.0349560799875,0.0102273247125,-0.0305293275,-1.0,0.0,0.0,0.0,0.0,0.0,0.0,0.0,0.0,-2.78152282361,0.27636925491,-40.9877877277,-1.0,0.0,0.0,0.0,0.0,0.0,0.0,0.0,0.0
1492398280997833796,362,1492398280927897930,,-176.117820753,0.385437176803,-1.62992788538,0.0,-1.0,0.0,0.0,0.0,0.0,0.0,0.0,0.0,0.0,-0.0343454934375,0.01160114445,-0.029002861125,-1.0,0.0,0.0,0.0,0.0,0.0,0.0,0.0,0.0,-2.78152282361,0.27636925491,-40.9877877277,-1.0,0.0,0.0,0.0,0.0,0.0,0.0,0.0,0.0
1492398281017702444,363,1492398280947902917,,-176.117820753,0.385437176803,-1.62992788538,0.0,-1.0,0.0,0.0,0.0,0.0,0.0,0.0,0.0,0.0,-0.0346507867125,0.0117537910875,-0.029002861125,-1.0,0.0,0.0,0.0,0.0,0.0,0.0,0.0,0.0,-2.78152282361,0.27636925491,-40.9877877277,-1.0,0.0,0.0,0.0,0.0,0.0,0.0,0.0,0.0
1492398281037184191,364,1492398280967900037,,-176.229394839,-0.049741050108,-1.62992788538,0.0,-1.0,0.0,0.0,0.0,0.0,0.0,0.0,0.0,0.0,-0.0337349068875,0.012211731,-0.030224034225,-1.0,0.0,0.0,0.0,0.0,0.0,0.0,0.0,0.0,-2.70128658831,-0.0356605490206,-40.9877877277,-1.0,0.0,0.0,0.0,0.0,0.0,0.0,0.0,0.0
1492398281057902278,365,1492398280988023996,,-176.229394839,-0.049741050108,-1.15967520848,0.0,-1.0,0.0,0.0,0.0,0.0,0.0,0.0,0.0,0.0,-0.0322084405125,0.010685264625,-0.0291555077625,-1.0,0.0,0.0,0.0,0.0,0.0,0.0,0.0,0.0,-2.70128658831,-0.0356605490206,-40.9877877277,-1.0,0.0,0.0,0.0,0.0,0.0,0.0,0.0,0.0
1492398281079788852,366,1492398281007925987,,-176.229394839,-0.049741050108,-1.15967520848,0.0,-1.0,0.0,0.0,0.0,0.0,0.0,0.0,0.0,0.0,-0.0340402001625,0.0126696709125,-0.0358719598125,-1.0,0.0,0.0,0.0,0.0,0.0,0.0,0.0,0.0,-2.70128658831,-0.0356605490206,-40.9877877277,-1.0,0.0,0.0,0.0,0.0,0.0,0.0,0.0,0.0
1492398281100037478,367,1492398281027900934,,-176.142719836,0.547079773566,-1.15967520848,0.0,-1.0,0.0,0.0,0.0,0.0,0.0,0.0,0.0,0.0,-0.036940486275,0.011906437725,-0.0291555077625,-1.0,0.0,0.0,0.0,0.0,0.0,0.0,0.0,0.0,-2.7636925491,0.392266039227,-40.9877877277,-1.0,0.0,0.0,0.0,0.0,0.0,0.0,0.0,0.0
1492398281117212246,368,1492398281047884941,,-176.142719836,0.547079773566,-1.15967520848,0.0,-1.0,0.0,0.0,0.0,0.0,0.0,0.0,0.0,0.0,-0.0322084405125,0.0132802574625,-0.0305293275,-1.0,0.0,0.0,0.0,0.0,0.0,0.0,0.0,0.0,-2.7636925491,0.392266039227,-40.9877877277,-1.0,0.0,0.0,0.0,0.0,0.0,0.0,0.0,0.0
1492398281137178600,369,1492398281067883968,,-176.142719836,0.547079773566,-1.15967520848,0.0,-1.0,0.0,0.0,0.0,0.0,0.0,0.0,0.0,0.0,-0.033276966975,0.0109905579,-0.0285449212125,-1.0,0.0,0.0,0.0,0.0,0.0,0.0,0.0,0.0,-2.7636925491,0.392266039227,-40.9877877277,-1.0,0.0,0.0,0.0,0.0,0.0,0.0,0.0,0.0
1492398281159348801,370,1492398281088929891,,-176.18261437,-2.21225008677,-1.15967520848,0.0,-1.0,0.0,0.0,0.0,0.0,0.0,0.0,0.0,0.0,-0.035108726625,0.0114484978125,-0.0309872674125,-1.0,0.0,0.0,0.0,0.0,0.0,0.0,0.0,0.0,-2.73694713733,-1.58689443142,-40.9877877277,-1.0,0.0,0.0,0.0,0.0,0.0,0.0,0.0,0.0
1492398281178791044,371,1492398281108702898,,-176.18261437,-2.21225008677,-0.935358195757,0.0,-1.0,0.0,0.0,0.0,0.0,0.0,0.0,0.0,0.0,-0.03480343335,0.0108379112625,-0.0294608010375,-1.0,0.0,0.0,0.0,0.0,0.0,0.0,0.0,0.0,-2.73694713733,-1.58689443142,-40.9877877277,-1.0,0.0,0.0,0.0,0.0,0.0,0.0,0.0,0.0
1492398281198166236,372,1492398281128659009,,-176.18261437,-2.21225008677,-0.935358195757,0.0,-1.0,0.0,0.0,0.0,0.0,0.0,0.0,0.0,0.0,-0.0340402001625,0.0114484978125,-0.0282396279375,-1.0,0.0,0.0,0.0,0.0,0.0,0.0,0.0,0.0,-2.73694713733,-1.58689443142,-40.9877877277,-1.0,0.0,0.0,0.0,0.0,0.0,0.0,0.0,0.0
1492398281221445511,373,1492398281148467063,,-176.266721843,-0.422809372202,-0.935358195757,0.0,-1.0,0.0,0.0,0.0,0.0,0.0,0.0,0.0,0.0,-0.034498140075,0.0108379112625,-0.0297660943125,-1.0,0.0,0.0,0.0,0.0,0.0,0.0,0.0,0.0,-2.67454117655,-0.303114666675,-40.9877877277,-1.0,0.0,0.0,0.0,0.0,0.0,0.0,0.0,0.0
1492398281238200138,374,1492398281168262958,,-176.266721843,-0.422809372202,-0.935358195757,0.0,-1.0,0.0,0.0,0.0,0.0,0.0,0.0,0.0,0.0,-0.03358226025,0.011906437725,-0.0306819741375,-1.0,0.0,0.0,0.0,0.0,0.0,0.0,0.0,0.0,-2.67454117655,-0.303114666675,-40.9877877277,-1.0,0.0,0.0,0.0,0.0,0.0,0.0,0.0,0.0
1492398281257426087,375,1492398281187992095,,-176.266721843,-0.422809372202,-0.935358195757,0.0,-1.0,0.0,0.0,0.0,0.0,0.0,0.0,0.0,0.0,-0.033887553525,0.0109905579,-0.0279343346625,-1.0,0.0,0.0,0.0,0.0,0.0,0.0,0.0,0.0,-2.67454117655,-0.303114666675,-40.9877877277,-1.0,0.0,0.0,0.0,0.0,0.0,0.0,0.0,0.0
1492398281277860610,376,1492398281207937002,,-176.266721843,-0.422809372202,-1.62992788538,0.0,-1.0,0.0,0.0,0.0,0.0,0.0,0.0,0.0,0.0,-0.03358226025,0.0096167381625,-0.027781688025,-1.0,0.0,0.0,0.0,0.0,0.0,0.0,0.0,0.0,-2.67454117655,-0.303114666675,-40.9877877277,-1.0,0.0,0.0,0.0,0.0,0.0,0.0,0.0,0.0
1492398281378212111,377,1492398281227921009,,-176.167412623,0.310856224846,-1.62992788538,0.0,-1.0,0.0,0.0,0.0,0.0,0.0,0.0,0.0,0.0,-0.0346507867125,0.012517024275,-0.0291555077625,-1.0,0.0,0.0,0.0,0.0,0.0,0.0,0.0,0.0,-2.74586227459,0.222878431379,-40.9877877277,-1.0,0.0,0.0,0.0,0.0,0.0,0.0,0.0,0.0
1492398281378251645,378,1492398281247822046,,-176.167412623,0.310856224846,-1.62992788538,0.0,-1.0,0.0,0.0,0.0,0.0,0.0,0.0,0.0,0.0,-0.0341928468,0.012517024275,-0.0346507867125,-1.0,0.0,0.0,0.0,0.0,0.0,0.0,0.0,0.0,-2.74586227459,0.222878431379,-40.9877877277,-1.0,0.0,0.0,0.0,0.0,0.0,0.0,0.0,0.0
1492398281378266724,379,1492398281267853021,,-176.167412623,0.310856224846,-1.62992788538,0.0,-1.0,0.0,0.0,0.0,0.0,0.0,0.0,0.0,0.0,-0.032666380425,0.0114484978125,-0.030224034225,-1.0,0.0,0.0,0.0,0.0,0.0,0.0,0.0,0.0,-2.74586227459,0.222878431379,-40.9877877277,-1.0,0.0,0.0,0.0,0.0,0.0,0.0,0.0,0.0
1492398281378307274,380,1492398281287878990,,-176.179979182,-0.609270037315,-1.62992788538,0.0,-1.0,0.0,0.0,0.0,0.0,0.0,0.0,0.0,0.0,-0.035719313175,0.011906437725,-0.0282396279375,-1.0,0.0,0.0,0.0,0.0,0.0,0.0,0.0,0.0,-2.73694713733,-0.436841725502,-40.9877877277,-1.0,0.0,0.0,0.0,0.0,0.0,0.0,0.0,0.0
1492398281389185849,381,1492398281307858943,,-176.179979182,-0.609270037315,-1.38591785081,0.0,-1.0,0.0,0.0,0.0,0.0,0.0,0.0,0.0,0.0,-0.0329716737,0.00915879825,-0.02991874095,-1.0,0.0,0.0,0.0,0.0,0.0,0.0,0.0,0.0,-2.73694713733,-0.436841725502,-40.9877877277,-1.0,0.0,0.0,0.0,0.0,0.0,0.0,0.0,0.0
1492398281397293369,382,1492398281327924013,,-176.179979182,-0.609270037315,-1.38591785081,0.0,-1.0,0.0,0.0,0.0,0.0,0.0,0.0,0.0,0.0,-0.0328190270625,0.010685264625,-0.0282396279375,-1.0,0.0,0.0,0.0,0.0,0.0,0.0,0.0,0.0,-2.73694713733,-0.436841725502,-40.9877877277,-1.0,0.0,0.0,0.0,0.0,0.0,0.0,0.0,0.0
1492398281416593322,383,1492398281347873926,,-176.192702333,0.957385142503,-1.38591785081,0.0,-1.0,0.0,0.0,0.0,0.0,0.0,0.0,0.0,0.0,-0.0331243203375,0.0102273247125,-0.0334296136125,-1.0,0.0,0.0,0.0,0.0,0.0,0.0,0.0,0.0,-2.72803200008,0.686465568647,-40.9877877277,-1.0,0.0,0.0,0.0,0.0,0.0,0.0,0.0,0.0
1492398281438372143,384,1492398281367965936,,-176.192702333,0.957385142503,-1.38591785081,0.0,-1.0,0.0,0.0,0.0,0.0,0.0,0.0,0.0,0.0,-0.0337349068875,0.0093114448875,-0.02991874095,-1.0,0.0,0.0,0.0,0.0,0.0,0.0,0.0,0.0,-2.72803200008,0.686465568647,-40.9877877277,-1.0,0.0,0.0,0.0,0.0,0.0,0.0,0.0,0.0
1492398281458405220,385,1492398281387953042,,-176.192702333,0.957385142503,-1.38591785081,0.0,-1.0,0.0,0.0,0.0,0.0,0.0,0.0,0.0,0.0,-0.034498140075,0.0111432045375,-0.030224034225,-1.0,0.0,0.0,0.0,0.0,0.0,0.0,0.0,0.0,-2.72803200008,0.686465568647,-40.9877877277,-1.0,0.0,0.0,0.0,0.0,0.0,0.0,0.0,0.0
1492398281477574555,386,1492398281407908916,,-176.195545494,-2.41091381305,-1.3971810273,0.0,-1.0,0.0,0.0,0.0,0.0,0.0,0.0,0.0,0.0,-0.0334296136125,0.0111432045375,-0.026560514925,-1.0,0.0,0.0,0.0,0.0,0.0,0.0,0.0,0.0,-2.72803200008,-1.7295366275,-40.9877877277,-1.0,0.0,0.0,0.0,0.0,0.0,0.0,0.0,0.0
1492398281497824710,387,1492398281427920103,,-176.195545494,-2.41091381305,-1.3971810273,0.0,-1.0,0.0,0.0,0.0,0.0,0.0,0.0,0.0,0.0,-0.0343454934375,0.0123643776375,-0.0280869813,-1.0,0.0,0.0,0.0,0.0,0.0,0.0,0.0,0.0,-2.72803200008,-1.7295366275,-40.9877877277,-1.0,0.0,0.0,0.0,0.0,0.0,0.0,0.0,0.0
1492398281517299947,388,1492398281447916030,,-176.195545494,-2.41091381305,-1.3971810273,0.0,-1.0,0.0,0.0,0.0,0.0,0.0,0.0,0.0,0.0,-0.0349560799875,0.010685264625,-0.028392274575,-1.0,0.0,0.0,0.0,0.0,0.0,0.0,0.0,0.0,-2.72803200008,-1.7295366275,-40.9877877277,-1.0,0.0,0.0,0.0,0.0,0.0,0.0,0.0,0.0
1492398281537313025,389,1492398281467920064,,-176.195545494,-2.41091381305,-1.3971810273,0.0,-1.0,0.0,0.0,0.0,0.0,0.0,0.0,0.0,0.0,-0.0312925606875,0.0108379112625,-0.030224034225,-1.0,0.0,0.0,0.0,0.0,0.0,0.0,0.0,0.0,-2.72803200008,-1.7295366275,-40.9877877277,-1.0,0.0,0.0,0.0,0.0,0.0,0.0,0.0,0.0
1492398281560527407,390,1492398281487915992,,-176.120103745,2.00100289226,-1.3971810273,0.0,-1.0,0.0,0.0,0.0,0.0,0.0,0.0,0.0,0.0,-0.033276966975,0.0108379112625,-0.0317505006,-1.0,0.0,0.0,0.0,0.0,0.0,0.0,0.0,0.0,-2.78152282361,1.43533709808,-40.9877877277,-1.0,0.0,0.0,0.0,0.0,0.0,0.0,0.0,0.0
1492398281579286243,391,1492398281507968902,,-176.120103745,2.00100289226,-1.62333252509,0.0,-1.0,0.0,0.0,0.0,0.0,0.0,0.0,0.0,0.0,-0.0349560799875,0.0097693848,-0.028392274575,-1.0,0.0,0.0,0.0,0.0,0.0,0.0,0.0,0.0,-2.78152282361,1.43533709808,-40.9877877277,-1.0,0.0,0.0,0.0,0.0,0.0,0.0,0.0,0.0
1492398281597236825,392,1492398281527913093,,-176.120103745,2.00100289226,-1.62333252509,0.0,-1.0,0.0,0.0,0.0,0.0,0.0,0.0,0.0,0.0,-0.0331243203375,0.011906437725,-0.03358226025,-1.0,0.0,0.0,0.0,0.0,0.0,0.0,0.0,0.0,-2.78152282361,1.43533709808,-40.9877877277,-1.0,0.0,0.0,0.0,0.0,0.0,0.0,0.0,0.0
1492398281617067575,393,1492398281547878980,,-176.193236534,1.35513289333,-1.62333252509,0.0,-1.0,0.0,0.0,0.0,0.0,0.0,0.0,0.0,0.0,-0.035108726625,0.01282231755,-0.0293081544,-1.0,0.0,0.0,0.0,0.0,0.0,0.0,0.0,0.0,-2.72803200008,0.971749960811,-40.9877877277,-1.0,0.0,0.0,0.0,0.0,0.0,0.0,0.0,0.0
1492398281637098200,394,1492398281567888975,,-176.193236534,1.35513289333,-1.62333252509,0.0,-1.0,0.0,0.0,0.0,0.0,0.0,0.0,0.0,0.0,-0.032666380425,0.011906437725,-0.03113991405,-1.0,0.0,0.0,0.0,0.0,0.0,0.0,0.0,0.0,-2.72803200008,0.971749960811,-40.9877877277,-1.0,0.0,0.0,0.0,0.0,0.0,0.0,0.0,0.0
1492398281657266277,395,1492398281587924957,,-176.193236534,1.35513289333,-1.62333252509,0.0,-1.0,0.0,0.0,0.0,0.0,0.0,0.0,0.0,0.0,-0.0325137337875,0.010074678075,-0.0294608010375,-1.0,0.0,0.0,0.0,0.0,0.0,0.0,0.0,0.0,-2.72803200008,0.971749960811,-40.9877877277,-1.0,0.0,0.0,0.0,0.0,0.0,0.0,0.0,0.0
1492398281677155114,396,1492398281607908964,,-176.192597477,0.857932285351,-1.84019525639,0.0,-1.0,0.0,0.0,0.0,0.0,0.0,0.0,0.0,0.0,-0.0331243203375,0.0108379112625,-0.0317505006,-1.0,0.0,0.0,0.0,0.0,0.0,0.0,0.0,0.0,-2.72803200008,0.615144470605,-40.9877877277,-1.0,0.0,0.0,0.0,0.0,0.0,0.0,0.0,0.0
1492398281704365523,397,1492398281627896070,,-176.192597477,0.857932285351,-1.84019525639,0.0,-1.0,0.0,0.0,0.0,0.0,0.0,0.0,0.0,0.0,-0.0328190270625,0.0111432045375,-0.0288502144875,-1.0,0.0,0.0,0.0,0.0,0.0,0.0,0.0,0.0,-2.72803200008,0.615144470605,-40.9877877277,-1.0,0.0,0.0,0.0,0.0,0.0,0.0,0.0,0.0
1492398281717086726,398,1492398281647885084,,-176.192597477,0.857932285351,-1.84019525639,0.0,-1.0,0.0,0.0,0.0,0.0,0.0,0.0,0.0,0.0,-0.032055793875,0.0117537910875,-0.0349560799875,-1.0,0.0,0.0,0.0,0.0,0.0,0.0,0.0,0.0,-2.72803200008,0.615144470605,-40.9877877277,-1.0,0.0,0.0,0.0,0.0,0.0,0.0,0.0,0.0
1492398281736960596,399,1492398281667869091,,-176.18625877,5.68861045076,-1.84019525639,0.0,-1.0,0.0,0.0,0.0,0.0,0.0,0.0,0.0,0.0,-0.032666380425,0.010074678075,-0.0297660943125,-1.0,0.0,0.0,0.0,0.0,0.0,0.0,0.0,0.0,-2.74586227459,4.09204800011,-40.9877877277,-1.0,0.0,0.0,0.0,0.0,0.0,0.0,0.0,0.0
1492398281757227580,400,1492398281687916040,,-176.18625877,5.68861045076,-1.84019525639,0.0,-1.0,0.0,0.0,0.0,0.0,0.0,0.0,0.0,0.0,-0.0325137337875,0.0126696709125,-0.0340402001625,-1.0,0.0,0.0,0.0,0.0,0.0,0.0,0.0,0.0,-2.74586227459,4.09204800011,-40.9877877277,-1.0,0.0,0.0,0.0,0.0,0.0,0.0,0.0,0.0
